subject, block_type, block, thought probe, trial, chosen, unchosen, offer_left_image, offer_right_image, exp_value_chosen, exp_value_unchosen, choice_location, choice_key, exp_value1, exp_value2, exp_value3, exp_value4, RT, reward, vas, RT_vas, coins_per_block, coins_per_task, count_to_prob, ntrial_to_prob, ITI_duration,RT_deadline,choice_feedback_duration,outcome_duration
54,practice,1, no_probe,1,4,3,3,4,0.7,0.6, right,2,0.3,0.4,0.6,0.7,1.863949,1, , ,1,1,1,2,1,6,0.5,1
54,practice,1, probe,2,4,1,1,4,0.7,0.3, right,2,0.3,0.4,0.6,0.7,3.0354426,0,99.99581909,9.083158,1,1,2,2,1,6,0.5,1
54,practice,1, no_probe,3,1,2,1,2,0.3,0.4, left,1,0.3,0.4,0.6,0.7,1.0357647,0, , ,1,1,1,2,1,6,0.5,1
54,practice,1, abort_prob,4,1,2,2,1,0.3,0.4, right,2,0.3,0.4,0.6,0.7,2.3431084,1, , ,2,2,2,2,1,6,0.5,1
54,practice,1, abort_trial,5,,,,,,,,,,,,,,,,,,,,,,,,
54,practice,1, no_probe,6,3,4,4,3,0.6,0.7, right,2,0.3,0.4,0.6,0.7,2.5799533,1, , ,3,3,1,3,1,6,0.5,1
54, test,1, no_probe,1,3,4,4,3,0.6,0.7, right,2,0.3,0.4,0.6,0.7,1.3077817,0, , ,0,3,1,3,1,6,0.5,1
54, test,1, no_probe,2,1,3,3,1,0.3,0.6, right,2,0.3,0.4,0.6,0.7,1.3083035,0, , ,0,3,2,3,1,6,0.5,1
54, test,1, probe,3,4,1,1,4,0.7,0.3, right,2,0.3,0.4,0.6,0.7,1.9902021,1,99.99725342,7.0162624,1,4,3,3,1,6,0.5,1
54, test,1, no_probe,4,4,3,3,4,0.7,0.6, right,2,0.3,0.4,0.6,0.7,1.570583,0, , ,1,4,1,2,1,6,0.5,1
54, test,1, probe,5,2,4,4,2,0.4,0.7, right,2,0.3,0.4,0.6,0.7,1.1396627,1,99.99429321,6.5498678,2,5,2,2,1,6,0.5,1
54, test,1, no_probe,6,3,4,3,4,0.6,0.7, left,1,0.3,0.4,0.6,0.7,1.4687105,1, , ,3,6,1,3,1,6,0.5,1
54, test,1, no_probe,7,2,4,4,2,0.4,0.7, right,2,0.3,0.4,0.6,0.7,0.927697,0, , ,3,6,2,3,1,6,0.5,1
54, test,1, probe,8,2,3,3,2,0.4,0.6, right,2,0.3,0.4,0.6,0.7,1.820243,1,99.99755859,5.0666211,4,7,3,3,1,6,0.5,1
54, test,1, no_probe,9,2,4,2,4,0.4,0.7, left,1,0.3,0.4,0.6,0.7,2.1265103,1, , ,5,8,1,2,1,6,0.5,1
54, test,1, probe,10,4,2,4,2,0.7,0.4, left,1,0.3,0.4,0.6,0.7,1.5934668,0,99.99810791,4.466653,5,8,2,2,1,6,0.5,1
54, test,1, no_probe,11,2,1,2,1,0.4,0.3, left,1,0.3,0.4,0.6,0.7,1.1198609,0, , ,5,8,1,3,1,6,0.5,1
54, test,1, no_probe,12,3,4,4,3,0.6,0.7, right,2,0.3,0.4,0.6,0.7,1.0293352,0, , ,5,8,2,3,1,6,0.5,1
54, test,1, probe,13,3,2,3,2,0.6,0.4, left,1,0.3,0.4,0.6,0.7,1.6298694,1,99.99658203,4.8832812,6,9,3,3,1,6,0.5,1
54, test,1, no_probe,14,2,4,4,2,0.4,0.7, right,2,0.3,0.4,0.6,0.7,1.296108,0, , ,6,9,1,3,1,6,0.5,1
54, test,1, no_probe,15,4,1,4,1,0.7,0.3, left,1,0.3,0.4,0.6,0.7,1.3062612,1, , ,7,10,2,3,1,6,0.5,1
54, test,1, probe,16,3,4,3,4,0.6,0.7, left,1,0.3,0.4,0.6,0.7,1.2480843,0,91.4515686,4.1333221,7,10,3,3,1,6,0.5,1
54, test,1, no_probe,17,3,1,1,3,0.6,0.3, right,2,0.3,0.4,0.6,0.7,1.5198784,0, , ,7,10,1,3,1,6,0.5,1
54, test,1, no_probe,18,1,3,3,1,0.3,0.6, right,2,0.3,0.4,0.6,0.7,1.7682983,0, , ,7,10,2,3,1,6,0.5,1
54, test,1, probe,19,4,3,3,4,0.7,0.6, right,2,0.3,0.4,0.6,0.7,1.4313642,1,95.66751099,3.9165589,8,11,3,3,1,6,0.5,1
54, test,1, no_probe,20,4,3,3,4,0.7,0.6, right,2,0.3,0.4,0.6,0.7,1.1783691,1, , ,9,12,1,2,1,6,0.5,1
54, test,1, probe,21,1,2,1,2,0.3,0.4, left,1,0.3,0.4,0.6,0.7,1.3759807,1,91.46008301,3.1833222,10,13,2,2,1,6,0.5,1
54, test,1, no_probe,22,1,4,1,4,0.3,0.7, left,1,0.3,0.4,0.6,0.7,1.2904576,0, , ,10,13,1,2,1,6,0.5,1
54, test,1, probe,23,4,1,1,4,0.7,0.3, right,2,0.3,0.4,0.6,0.7,0.9727226,1,92.14993286,3.6499309,11,14,2,2,1,6,0.5,1
54, test,1, no_probe,24,4,3,3,4,0.7,0.6, right,2,0.3,0.4,0.6,0.7,1.7593111,1, , ,12,15,1,2,1,6,0.5,1
54, test,1, probe,25,4,1,4,1,0.7,0.3, left,1,0.3,0.4,0.6,0.7,1.0383096,0,93.41000366,3.3666001,12,15,2,2,1,6,0.5,1
54, test,2, no_probe,1,4,2,2,4,0.7,0.4, right,2,0.3,0.4,0.6,0.7,1.2019813,1, , ,1,16,1,2,1,6,0.5,1
54, test,2, probe,2,1,2,2,1,0.3,0.4, right,2,0.3,0.4,0.6,0.7,1.5901956,1,96.16418457,5.9332695,2,17,2,2,1,6,0.5,1
54, test,2, no_probe,3,3,1,3,1,0.6,0.3, left,1,0.3,0.4,0.6,0.7,0.682922,1, , ,3,18,1,2,1,6,0.5,1
54, test,2, probe,4,3,2,2,3,0.6,0.4, right,2,0.3,0.4,0.6,0.7,0.7294309,0,95.18768311,3.233287,3,18,2,2,1,6,0.5,1
54, test,2, no_probe,5,3,1,3,1,0.6,0.3, left,1,0.3,0.4,0.6,0.7,1.0299429,0, , ,3,18,1,3,1,6,0.5,1
54, test,2, no_probe,6,4,1,4,1,0.7,0.3, left,1,0.3,0.4,0.6,0.7,0.7293866,1, , ,4,19,2,3,1,6,0.5,1
54, test,2, probe,7,2,3,3,2,0.4,0.6, right,2,0.3,0.4,0.6,0.7,1.2583613,1,93.88601685,3.3999421,5,20,3,3,1,6,0.5,1
54, test,2, no_probe,8,1,3,3,1,0.3,0.6, right,2,0.3,0.4,0.6,0.7,0.8726978,0, , ,5,20,1,2,1,6,0.5,1
54, test,2, probe,9,4,2,4,2,0.7,0.4, left,1,0.3,0.4,0.6,0.7,0.5795978,0,96.92480469,3.1833444,5,20,2,2,1,6,0.5,1
54, test,2, no_probe,10,2,1,1,2,0.4,0.3, right,2,0.3,0.4,0.6,0.7,0.7243076,1, , ,6,21,1,3,1,6,0.5,1
54, test,2, no_probe,11,1,3,3,1,0.3,0.6, right,2,0.3,0.4,0.6,0.7,1.1459015,0, , ,6,21,2,3,1,6,0.5,1
54, test,2, probe,12,2,3,3,2,0.4,0.6, right,2,0.3,0.4,0.6,0.7,1.3962628,1,96.24835205,3.2499212,7,22,3,3,1,6,0.5,1
54, test,2, no_probe,13,2,3,2,3,0.4,0.6, left,1,0.3,0.4,0.6,0.7,0.8393144,1, , ,8,23,1,2,1,6,0.5,1
54, test,2, probe,14,2,3,3,2,0.4,0.6, right,2,0.3,0.4,0.6,0.7,0.5543191,1,95.85549927,3.3833348,9,24,2,2,1,6,0.5,1
54, test,2, no_probe,15,2,4,2,4,0.4,0.7, left,1,0.3,0.4,0.6,0.7,0.5605684,1, , ,10,25,1,2,1,6,0.5,1
54, test,2, probe,16,2,1,2,1,0.4,0.3, left,1,0.3,0.4,0.6,0.7,0.6209181,0,96.17169189,4.1165888,10,25,2,2,1,6,0.5,1
54, test,2, no_probe,17,4,3,3,4,0.7,0.6, right,2,0.3,0.4,0.6,0.7,0.7078265,0, , ,10,25,1,3,1,6,0.5,1
54, test,2, no_probe,18,3,4,4,3,0.6,0.7, right,2,0.3,0.4,0.6,0.7,1.745023,1, , ,11,26,2,3,1,6,0.5,1
54, test,2, probe,19,2,3,3,2,0.4,0.6, right,2,0.3,0.4,0.6,0.7,1.2194563,1,96.60113525,3.2332695,12,27,3,3,1,6,0.5,1
54, test,2, no_probe,20,2,4,2,4,0.4,0.7, left,1,0.3,0.4,0.6,0.7,0.5103307,1, , ,13,28,1,2,1,6,0.5,1
54, test,2, probe,21,4,3,3,4,0.7,0.6, right,2,0.3,0.4,0.6,0.7,1.3442796,0,95.88980103,3.3666055,13,28,2,2,1,6,0.5,1
54, test,2, no_probe,22,2,3,3,2,0.4,0.6, right,2,0.3,0.4,0.6,0.7,0.8751419,0, , ,13,28,1,3,1,6,0.5,1
54, test,2, no_probe,23,2,3,2,3,0.4,0.6, left,1,0.3,0.4,0.6,0.7,0.5545236,1, , ,14,29,2,3,1,6,0.5,1
54, test,2, probe,24,2,4,4,2,0.4,0.7, right,2,0.3,0.4,0.6,0.7,1.1888442,0,88.82589722,3.0166492,14,29,3,3,1,6,0.5,1
54, test,2, no_probe,25,3,4,4,3,0.6,0.7, right,2,0.3,0.4,0.6,0.7,0.9822176,1, , ,15,30,1,3,1,6,0.5,1
54, test,3, no_probe,1,3,4,4,3,0.6,0.7, right,2,0.3,0.4,0.6,0.7,0.963505,1, , ,1,31,1,2,1,6,0.5,1
54, test,3, probe,2,4,2,2,4,0.7,0.4, right,2,0.3,0.4,0.6,0.7,1.2711789,0,97.36965942,4.0499254,1,31,2,2,1,6,0.5,1
54, test,3, no_probe,3,2,4,4,2,0.4,0.7, right,2,0.3,0.4,0.6,0.7,1.3105309,1, , ,2,32,1,3,1,6,0.5,1
54, test,3, no_probe,4,3,4,4,3,0.6,0.7, right,2,0.3,0.4,0.6,0.7,0.6610963,1, , ,3,33,2,3,1,6,0.5,1
54, test,3, probe,5,3,1,3,1,0.6,0.3, left,1,0.3,0.4,0.6,0.7,0.7362626,1,97.23959351,3.3833403,4,34,3,3,1,6,0.5,1
54, test,3, no_probe,6,2,4,2,4,0.4,0.7, left,1,0.3,0.4,0.6,0.7,0.9947388,0, , ,4,34,1,2,1,6,0.5,1
54, test,3, probe,7,2,4,4,2,0.4,0.7, right,2,0.3,0.4,0.6,0.7,1.217445,0,89.98596191,2.7666305,4,34,2,2,1,6,0.5,1
54, test,3, no_probe,8,3,1,1,3,0.6,0.3, right,2,0.3,0.4,0.6,0.7,0.5350319,1, , ,5,35,1,3,1,6,0.5,1
54, test,3, no_probe,9,2,4,4,2,0.4,0.7, right,2,0.3,0.4,0.6,0.7,1.1704242,1, , ,6,36,2,3,1,6,0.5,1
54, test,3, probe,10,3,4,3,4,0.6,0.7, left,1,0.3,0.4,0.6,0.7,0.4444702,1,94.34915161,4.9332668,7,37,3,3,1,6,0.5,1
54, test,3, no_probe,11,3,4,4,3,0.6,0.7, right,2,0.3,0.4,0.6,0.7,0.4346345,1, , ,8,38,1,2,1,6,0.5,1
54, test,3, probe,12,3,1,1,3,0.6,0.3, right,2,0.3,0.4,0.6,0.7,0.609786,0,91.23403931,3.1999543,8,38,2,2,1,6,0.5,1
54, test,3, no_probe,13,2,4,2,4,0.4,0.7, left,1,0.3,0.4,0.6,0.7,1.0386848,1, , ,9,39,1,3,1,6,0.5,1
54, test,3, no_probe,14,2,1,2,1,0.4,0.3, left,1,0.3,0.4,0.6,0.7,0.5548404,1, , ,10,40,2,3,1,6,0.5,1
54, test,3, probe,15,2,1,2,1,0.4,0.3, left,1,0.3,0.4,0.6,0.7,0.8213695,0,95.93325806,3.7832688,10,40,3,3,1,6,0.5,1
54, test,3, no_probe,16,3,1,1,3,0.6,0.3, right,2,0.3,0.4,0.6,0.7,0.3295524,0, , ,10,40,1,2,1,6,0.5,1
54, test,3, probe,17,4,1,1,4,0.7,0.3, right,2,0.3,0.4,0.6,0.7,1.3455696,1,96.29986572,3.6166663,11,41,2,2,1,6,0.5,1
54, test,3, no_probe,18,2,4,2,4,0.4,0.7, left,1,0.3,0.4,0.6,0.7,0.6554632,0, , ,11,41,1,3,1,6,0.5,1
54, test,3, no_probe,19,2,4,2,4,0.4,0.7, left,1,0.3,0.4,0.6,0.7,0.8325615,0, , ,11,41,2,3,1,6,0.5,1
54, test,3, probe,20,1,4,4,1,0.3,0.7, right,2,0.3,0.4,0.6,0.7,1.9115834,0,89.19644165,3.5165708,11,41,3,3,1,6,0.5,1
54, test,3, no_probe,21,3,2,2,3,0.6,0.4, right,2,0.3,0.4,0.6,0.7,0.7308208,1, , ,12,42,1,3,1,6,0.5,1
54, test,3, no_probe,22,4,1,1,4,0.7,0.3, right,2,0.3,0.4,0.6,0.7,1.6151447,1, , ,13,43,2,3,1,6,0.5,1
54, test,3, probe,23,3,2,3,2,0.6,0.4, left,1,0.3,0.4,0.6,0.7,1.0271801,0,97.14144897,3.4332992,13,43,3,3,1,6,0.5,1
54, test,3, no_probe,24,2,1,2,1,0.4,0.3, left,1,0.3,0.4,0.6,0.7,1.2137976,1, , ,14,44,1,2,1,6,0.5,1
54, test,3, probe,25,3,1,3,1,0.6,0.3, left,1,0.3,0.4,0.6,0.7,0.3986434,1,95.54888916,5.1499783,15,45,2,2,1,6,0.5,1
54, test,4, no_probe,1,1,4,4,1,0.3,0.7, right,2,0.3,0.4,0.6,0.7,0.5013675,0, , ,0,45,1,2,1,6,0.5,1
54, test,4, probe,2,2,1,1,2,0.4,0.3, right,2,0.3,0.4,0.6,0.7,1.0263454,1,86.66201782,7.549855,1,46,2,2,1,6,0.5,1
54, test,4, no_probe,3,2,4,4,2,0.4,0.7, right,2,0.3,0.4,0.6,0.7,1.1875859,0, , ,1,46,1,2,1,6,0.5,1
54, test,4, probe,4,4,2,4,2,0.7,0.4, left,1,0.3,0.4,0.6,0.7,1.4266227,0,80.4460144,4.283243,1,46,2,2,1,6,0.5,1
54, test,4, no_probe,5,2,1,1,2,0.4,0.3, right,2,0.3,0.4,0.6,0.7,1.5547219,0, , ,1,46,1,3,1,6,0.5,1
54, test,4, no_probe,6,4,1,1,4,0.7,0.3, right,2,0.3,0.4,0.6,0.7,1.5013312,0, , ,1,46,2,3,1,6,0.5,1
54, test,4, probe,7,2,4,4,2,0.4,0.7, right,2,0.3,0.4,0.6,0.7,2.2875088,1,82.80404663,7.2332407,2,47,3,3,1,6,0.5,1
54, test,4, no_probe,8,2,4,4,2,0.4,0.7, right,2,0.3,0.4,0.6,0.7,1.0835458,1, , ,3,48,1,2,1,6,0.5,1
54, test,4, probe,9,3,4,3,4,0.6,0.7, left,1,0.3,0.4,0.6,0.7,1.3801626,1,90.06204224,3.2832808,4,49,2,2,1,6,0.5,1
54, test,4, no_probe,10,3,1,3,1,0.6,0.3, left,1,0.3,0.4,0.6,0.7,0.782139,0, , ,4,49,1,2,1,6,0.5,1
54, test,4, probe,11,3,1,3,1,0.6,0.3, left,1,0.3,0.4,0.6,0.7,0.9153148,0,88.68408203,2.716655,4,49,2,2,1,6,0.5,1
54, test,4, no_probe,12,1,2,2,1,0.3,0.4, right,2,0.3,0.4,0.6,0.7,1.1875004,0, , ,4,49,1,3,1,6,0.5,1
54, test,4, no_probe,13,4,2,4,2,0.7,0.4, left,1,0.3,0.4,0.6,0.7,1.384232,1, , ,5,50,2,3,1,6,0.5,1
54, test,4, probe,14,3,2,3,2,0.6,0.4, left,1,0.3,0.4,0.6,0.7,0.8150795,1,91.40698242,3.0332726,6,51,3,3,1,6,0.5,1
54, test,4, no_probe,15,1,2,2,1,0.3,0.4, right,2,0.3,0.4,0.6,0.7,1.0019997,0, , ,6,51,1,2,1,6,0.5,1
54, test,4, probe,16,2,4,4,2,0.4,0.7, right,2,0.3,0.4,0.6,0.7,1.0298242,1,79.08325195,3.9166011,7,52,2,2,1,6,0.5,1
54, test,4, no_probe,17,1,4,4,1,0.3,0.7, right,2,0.3,0.4,0.6,0.7,1.2560112,1, , ,8,53,1,2,1,6,0.5,1
54, test,4, probe,18,3,2,2,3,0.6,0.4, right,2,0.3,0.4,0.6,0.7,0.5637509,1,82.35031128,2.7833275,9,54,2,2,1,6,0.5,1
54, test,4, no_probe,19,3,1,1,3,0.6,0.3, right,2,0.3,0.4,0.6,0.7,0.7544714,0, , ,9,54,1,2,1,6,0.5,1
54, test,4, probe,20,1,2,1,2,0.3,0.4, left,1,0.3,0.4,0.6,0.7,1.3612293,0,93.39035034,3.5166065,9,54,2,2,1,6,0.5,1
54, test,4, no_probe,21,1,2,1,2,0.3,0.4, left,1,0.3,0.4,0.6,0.7,1.1093702,1, , ,10,55,1,2,1,6,0.5,1
54, test,4, probe,22,2,4,4,2,0.4,0.7, right,2,0.3,0.4,0.6,0.7,1.0679383,0,80.78027344,2.7332568,10,55,2,2,1,6,0.5,1
54, test,4, no_probe,23,1,4,1,4,0.3,0.7, left,1,0.3,0.4,0.6,0.7,1.1026191,0, , ,10,55,1,3,1,6,0.5,1
54, test,4, no_probe,24,3,4,4,3,0.6,0.7, right,2,0.3,0.4,0.6,0.7,0.6253233,1, , ,11,56,2,3,1,6,0.5,1
54, test,4, probe,25,3,4,4,3,0.6,0.7, right,2,0.3,0.4,0.6,0.7,0.4019926,0,80.09609985,2.5500167,11,56,3,3,1,6,0.5,1
54, test,5, no_probe,1,3,1,1,3,0.6,0.3, right,2,0.3,0.4,0.6,0.7,1.1124989,1, , ,1,57,1,2,1,6,0.5,1
54, test,5, probe,2,3,2,3,2,0.6,0.4, left,1,0.3,0.4,0.6,0.7,1.0572981,0,85.2517395,3.0666567,1,57,2,2,1,6,0.5,1
54, test,5, no_probe,3,2,4,2,4,0.4,0.7, left,1,0.3,0.4,0.6,0.7,1.0542705,0, , ,1,57,1,3,1,6,0.5,1
54, test,5, no_probe,4,4,2,2,4,0.7,0.4, right,2,0.3,0.4,0.6,0.7,1.0094992,1, , ,2,58,2,3,1,6,0.5,1
54, test,5, probe,5,4,1,1,4,0.7,0.3, right,2,0.3,0.4,0.6,0.7,0.7137195,1,89.62457275,2.666604,3,59,3,3,1,6,0.5,1
54, test,5, no_probe,6,3,2,3,2,0.6,0.4, left,1,0.3,0.4,0.6,0.7,1.4504367,1, , ,4,60,1,2,1,6,0.5,1
54, test,5, probe,7,3,1,3,1,0.6,0.3, left,1,0.3,0.4,0.6,0.7,0.4974275,0,89.47412109,2.7165669,4,60,2,2,1,6,0.5,1
54, test,5, no_probe,8,3,1,1,3,0.6,0.3, right,2,0.3,0.4,0.6,0.7,0.6049041,0, , ,4,60,1,3,1,6,0.5,1
54, test,5, no_probe,9,3,1,1,3,0.6,0.3, right,2,0.3,0.4,0.6,0.7,1.1750612,0, , ,4,60,2,3,1,6,0.5,1
54, test,5, probe,10,3,1,3,1,0.6,0.3, left,1,0.3,0.4,0.6,0.7,2.1691976,1,88.931427,2.7499705,5,61,3,3,1,6,0.5,1
54, test,5, no_probe,11,3,1,1,3,0.6,0.3, right,2,0.3,0.4,0.6,0.7,1.5443101,0, , ,5,61,1,2,1,6,0.5,1
54, test,5, probe,12,4,2,2,4,0.7,0.4, right,2,0.3,0.4,0.6,0.7,1.9881696,1,88.97311401,4.2999515,6,62,2,2,1,6,0.5,1
54, test,5, no_probe,13,4,1,1,4,0.7,0.3, right,2,0.3,0.4,0.6,0.7,1.1373492,1, , ,7,63,1,3,1,6,0.5,1
54, test,5, no_probe,14,4,1,4,1,0.7,0.3, left,1,0.3,0.4,0.6,0.7,0.4213588,1, , ,8,64,2,3,1,6,0.5,1
54, test,5, probe,15,4,1,1,4,0.7,0.3, right,2,0.3,0.4,0.6,0.7,0.5189895,0,87.35403442,2.9499719,8,64,3,3,1,6,0.5,1
54, test,5, no_probe,16,1,2,1,2,0.3,0.4, left,1,0.3,0.4,0.6,0.7,2.1796427,0, , ,8,64,1,3,1,6,0.5,1
54, test,5, no_probe,17,4,1,4,1,0.7,0.3, left,1,0.3,0.4,0.6,0.7,0.5981753,1, , ,9,65,2,3,1,6,0.5,1
54, test,5, probe,18,4,2,2,4,0.7,0.4, right,2,0.3,0.4,0.6,0.7,0.5634061,0,91.87069702,3.0166716,9,65,3,3,1,6,0.5,1
54, test,5, no_probe,19,3,2,2,3,0.6,0.4, right,2,0.3,0.4,0.6,0.7,0.9928787,1, , ,10,66,1,2,1,6,0.5,1
54, test,5, probe,20,4,2,4,2,0.7,0.4, left,1,0.3,0.4,0.6,0.7,0.5628523,0,69.38598633,4.3832085,10,66,2,2,1,6,0.5,1
54, test,5, no_probe,21,4,1,1,4,0.7,0.3, right,2,0.3,0.4,0.6,0.7,0.7050066,1, , ,11,67,1,3,1,6,0.5,1
54, test,5, no_probe,22,3,2,2,3,0.6,0.4, right,2,0.3,0.4,0.6,0.7,0.6262407,1, , ,12,68,2,3,1,6,0.5,1
54, test,5, probe,23,3,4,4,3,0.6,0.7, right,2,0.3,0.4,0.6,0.7,0.6103633,1,62.0791626,2.9999771,13,69,3,3,1,6,0.5,1
54, test,5, no_probe,24,3,4,4,3,0.6,0.7, right,2,0.3,0.4,0.6,0.7,0.8066084,1, , ,14,70,1,3,1,6,0.5,1
54, test,5, no_probe,25,3,2,3,2,0.6,0.4, left,1,0.3,0.4,0.6,0.7,0.6916579,1, , ,15,71,2,3,1,6,0.5,1
54, test,6, no_probe,1,1,4,4,1,0.3,0.7, right,2,0.3,0.4,0.6,0.7,0.9201312,1, , ,1,72,1,2,1,6,0.5,1
54, test,6, probe,2,3,4,4,3,0.6,0.7, right,2,0.3,0.4,0.6,0.7,1.7164502,0,85.87869263,4.5166124,1,72,2,2,1,6,0.5,1
54, test,6, no_probe,3,2,3,3,2,0.4,0.6, right,2,0.3,0.4,0.6,0.7,1.4116424,1, , ,2,73,1,2,1,6,0.5,1
54, test,6, probe,4,1,3,3,1,0.3,0.6, right,2,0.3,0.4,0.6,0.7,0.6660644,1,83.36178589,2.549971,3,74,2,2,1,6,0.5,1
54, test,6, no_probe,5,3,4,4,3,0.6,0.7, right,2,0.3,0.4,0.6,0.7,1.3897033,0, , ,3,74,1,2,1,6,0.5,1
54, test,6, probe,6,2,3,2,3,0.4,0.6, left,1,0.3,0.4,0.6,0.7,0.8232208,0,84.02523804,2.4500048,3,74,2,2,1,6,0.5,1
54, test,6, no_probe,7,1,2,1,2,0.3,0.4, left,1,0.3,0.4,0.6,0.7,0.8082646,1, , ,4,75,1,2,1,6,0.5,1
54, test,6, probe,8,3,2,3,2,0.6,0.4, left,1,0.3,0.4,0.6,0.7,1.4207895,0,79.08755493,2.0000017,4,75,2,2,1,6,0.5,1
54, test,6, no_probe,9,1,4,4,1,0.3,0.7, right,2,0.3,0.4,0.6,0.7,0.9774334,0, , ,4,75,1,2,1,6,0.5,1
54, test,6, probe,10,1,3,1,3,0.3,0.6, left,1,0.3,0.4,0.6,0.7,0.7398936,1,89.73809814,2.6332898,5,76,2,2,1,6,0.5,1
54, test,6, no_probe,11,1,3,1,3,0.3,0.6, left,1,0.3,0.4,0.6,0.7,0.9058577,0, , ,5,76,1,3,1,6,0.5,1
54, test,6, no_probe,12,2,1,2,1,0.4,0.3, left,1,0.3,0.4,0.6,0.7,0.9833675,1, , ,6,77,2,3,1,6,0.5,1
54, test,6, probe,13,1,2,2,1,0.3,0.4, right,2,0.3,0.4,0.6,0.7,0.8608199,0,81.30953979,3.549962,6,77,3,3,1,6,0.5,1
54, test,6, no_probe,14,1,2,2,1,0.3,0.4, right,2,0.3,0.4,0.6,0.7,0.7928172,0, , ,6,77,1,2,1,6,0.5,1
54, test,6, probe,15,2,4,2,4,0.4,0.7, left,1,0.3,0.4,0.6,0.7,0.7711615,0,80.99084473,3.9332727,6,77,2,2,1,6,0.5,1
54, test,6, no_probe,16,1,3,1,3,0.3,0.6, left,1,0.3,0.4,0.6,0.7,0.6265039,0, , ,6,77,1,3,1,6,0.5,1
54, test,6, no_probe,17,1,3,3,1,0.3,0.6, right,2,0.3,0.4,0.6,0.7,0.8948946,0, , ,6,77,2,3,1,6,0.5,1
54, test,6, probe,18,2,1,2,1,0.4,0.3, left,1,0.3,0.4,0.6,0.7,1.2799963,1,78.95291138,3.1499942,7,78,3,3,1,6,0.5,1
54, test,6, no_probe,19,2,3,2,3,0.4,0.6, left,1,0.3,0.4,0.6,0.7,1.0596629,1, , ,8,79,1,2,1,6,0.5,1
54, test,6, probe,20,2,3,3,2,0.4,0.6, right,2,0.3,0.4,0.6,0.7,0.6559745,0,77.42092896,1.9832495,8,79,2,2,1,6,0.5,1
54, test,6, no_probe,21,4,3,4,3,0.7,0.6, left,1,0.3,0.4,0.6,0.7,1.2967757,1, , ,9,80,1,3,1,6,0.5,1
54, test,6, no_probe,22,2,3,2,3,0.4,0.6, left,1,0.3,0.4,0.6,0.7,1.3038819,0, , ,9,80,2,3,1,6,0.5,1
54, test,6, probe,23,1,3,1,3,0.3,0.6, left,1,0.3,0.4,0.6,0.7,0.716151,0,67.59802246,5.8166295,9,80,3,3,1,6,0.5,1
54, test,6, no_probe,24,4,1,1,4,0.7,0.3, right,2,0.3,0.4,0.6,0.7,0.8191596,0, , ,9,80,1,3,1,6,0.5,1
54, test,6, no_probe,25,1,2,1,2,0.3,0.4, left,1,0.3,0.4,0.6,0.7,0.4191176,0, , ,9,80,2,3,1,6,0.5,1
54, test,7, no_probe,1,1,4,4,1,0.3,0.7, right,2,0.3,0.4,0.6,0.7,0.8578274,0, , ,0,80,1,3,1,6,0.5,1
54, test,7, no_probe,2,4,1,4,1,0.7,0.3, left,1,0.3,0.4,0.6,0.7,0.9491973,1, , ,1,81,2,3,1,6,0.5,1
54, test,7, probe,3,2,1,2,1,0.4,0.3, left,1,0.3,0.4,0.6,0.7,1.1409913,0,83.87683105,3.4832857,1,81,3,3,1,6,0.5,1
54, test,7, no_probe,4,4,2,4,2,0.7,0.4, left,1,0.3,0.4,0.6,0.7,0.9244534,0, , ,1,81,1,2,1,6,0.5,1
54, test,7, probe,5,2,4,2,4,0.4,0.7, left,1,0.3,0.4,0.6,0.7,2.0244745,1,81.71060181,3.0833801,2,82,2,2,1,6,0.5,1
54, test,7, no_probe,6,3,4,4,3,0.6,0.7, right,2,0.3,0.4,0.6,0.7,1.2713737,1, , ,3,83,1,2,1,6,0.5,1
54, test,7, probe,7,2,4,4,2,0.4,0.7, right,2,0.3,0.4,0.6,0.7,1.1063725,0,75.25167847,2.8165883,3,83,2,2,1,6,0.5,1
54, test,7, no_probe,8,2,4,2,4,0.4,0.7, left,1,0.3,0.4,0.6,0.7,1.1227965,1, , ,4,84,1,2,1,6,0.5,1
54, test,7, probe,9,3,4,4,3,0.6,0.7, right,2,0.3,0.4,0.6,0.7,0.6797586,1,70.8397522,3.8999652,5,85,2,2,1,6,0.5,1
54, test,7, no_probe,10,2,1,1,2,0.4,0.3, right,2,0.3,0.4,0.6,0.7,1.2044519,0, , ,5,85,1,2,1,6,0.5,1
54, test,7, probe,11,3,2,3,2,0.6,0.4, left,1,0.3,0.4,0.6,0.7,0.7340842,1,69.01678467,3.9833236,6,86,2,2,1,6,0.5,1
54, test,7, no_probe,12,3,2,2,3,0.6,0.4, right,2,0.3,0.4,0.6,0.7,0.8685192,1, , ,7,87,1,2,1,6,0.5,1
54, test,7, probe,13,3,1,3,1,0.6,0.3, left,1,0.3,0.4,0.6,0.7,0.4550218,1,68.06030273,2.9165824,8,88,2,2,1,6,0.5,1
54, test,7, no_probe,14,1,2,2,1,0.3,0.4, right,2,0.3,0.4,0.6,0.7,1.4839766,1, , ,9,89,1,3,1,6,0.5,1
54, test,7, no_probe,15,1,2,1,2,0.3,0.4, left,1,0.3,0.4,0.6,0.7,1.0872292,0, , ,9,89,2,3,1,6,0.5,1
54, test,7, probe,16,3,1,3,1,0.6,0.3, left,1,0.3,0.4,0.6,0.7,1.4083097,1,66.00942993,2.6666313,10,90,3,3,1,6,0.5,1
54, test,7, no_probe,17,4,2,4,2,0.7,0.4, left,1,0.3,0.4,0.6,0.7,0.9455193,1, , ,11,91,1,3,1,6,0.5,1
54, test,7, no_probe,18,3,2,2,3,0.6,0.4, right,2,0.3,0.4,0.6,0.7,0.5461844,0, , ,11,91,2,3,1,6,0.5,1
54, test,7, probe,19,4,2,2,4,0.7,0.4, right,2,0.3,0.4,0.6,0.7,1.5895046,1,71.53704834,2.2333181,12,92,3,3,1,6,0.5,1
54, test,7, no_probe,20,3,2,3,2,0.6,0.4, left,1,0.3,0.4,0.6,0.7,0.7164117,0, , ,12,92,1,2,1,6,0.5,1
54, test,7, probe,21,3,1,3,1,0.6,0.3, left,1,0.3,0.4,0.6,0.7,0.4022186,1,67.07196045,2.8166671,13,93,2,2,1,6,0.5,1
54, test,7, no_probe,22,4,2,2,4,0.7,0.4, right,2,0.3,0.4,0.6,0.7,1.1975136,1, , ,14,94,1,2,1,6,0.5,1
54, test,7, probe,23,4,2,2,4,0.7,0.4, right,2,0.3,0.4,0.6,0.7,1.4181431,1,66.6111145,2.816602,15,95,2,2,1,6,0.5,1
54, test,7, no_probe,24,4,2,2,4,0.7,0.4, right,2,0.3,0.4,0.6,0.7,0.8176411,0, , ,15,95,1,2,1,6,0.5,1
54, test,7, probe,25,4,2,2,4,0.7,0.4, right,2,0.3,0.4,0.6,0.7,0.6616849,1,67.73651123,2.3499668,16,96,2,2,1,6,0.5,1
54, test,8, no_probe,1,2,3,3,2,0.4,0.6, right,2,0.3,0.4,0.6,0.7,1.7287915,1, , ,1,97,1,2,1,6,0.5,1
54, test,8, probe,2,2,1,2,1,0.4,0.3, left,1,0.3,0.4,0.6,0.7,1.1056718,0,83.72451782,3.4332615,1,97,2,2,1,6,0.5,1
54, test,8, no_probe,3,1,3,3,1,0.3,0.6, right,2,0.3,0.4,0.6,0.7,0.8775037,0, , ,1,97,1,3,1,6,0.5,1
54, test,8, no_probe,4,2,1,1,2,0.4,0.3, right,2,0.3,0.4,0.6,0.7,0.9304596,0, , ,1,97,2,3,1,6,0.5,1
54, test,8, probe,5,4,1,1,4,0.7,0.3, right,2,0.3,0.4,0.6,0.7,1.6276938,1,69.11569214,3.3999687,2,98,3,3,1,6,0.5,1
54, test,8, no_probe,6,4,1,1,4,0.7,0.3, right,2,0.3,0.4,0.6,0.7,0.6256105,1, , ,3,99,1,3,1,6,0.5,1
54, test,8, no_probe,7,4,2,4,2,0.7,0.4, left,1,0.3,0.4,0.6,0.7,0.4220121,0, , ,3,99,2,3,1,6,0.5,1
54, test,8, probe,8,3,1,1,3,0.6,0.3, right,2,0.3,0.4,0.6,0.7,1.1637347,1,66.34671021,2.2499557,4,100,3,3,1,6,0.5,1
54, test,8, no_probe,9,3,4,4,3,0.6,0.7, right,2,0.3,0.4,0.6,0.7,0.6471644,0, , ,4,100,1,2,1,6,0.5,1
54, test,8, probe,10,4,3,4,3,0.7,0.6, left,1,0.3,0.4,0.6,0.7,0.6572947,0,60.31973267,1.9666468,4,100,2,2,1,6,0.5,1
54, test,8, no_probe,11,3,2,2,3,0.6,0.4, right,2,0.3,0.4,0.6,0.7,0.7614523,0, , ,4,100,1,3,1,6,0.5,1
54, test,8, no_probe,12,2,1,2,1,0.4,0.3, left,1,0.3,0.4,0.6,0.7,1.0888707,0, , ,4,100,2,3,1,6,0.5,1
54, test,8, probe,13,4,1,4,1,0.7,0.3, left,1,0.3,0.4,0.6,0.7,0.7224365,1,57.62683105,1.7166669,5,101,3,3,1,6,0.5,1
54, test,8, no_probe,14,4,1,1,4,0.7,0.3, right,2,0.3,0.4,0.6,0.7,0.7495243,0, , ,5,101,1,3,1,6,0.5,1
54, test,8, no_probe,15,4,2,4,2,0.7,0.4, left,1,0.3,0.4,0.6,0.7,0.3167988,0, , ,5,101,2,3,1,6,0.5,1
54, test,8, probe,16,3,2,2,3,0.6,0.4, right,2,0.3,0.4,0.6,0.7,1.0858491,1,59.078125,1.8832571,6,102,3,3,1,6,0.5,1
54, test,8, no_probe,17,4,2,2,4,0.7,0.4, right,2,0.3,0.4,0.6,0.7,0.7585437,1, , ,7,103,1,3,1,6,0.5,1
54, test,8, no_probe,18,4,3,4,3,0.7,0.6, left,1,0.3,0.4,0.6,0.7,0.5269099,1, , ,8,104,2,3,1,6,0.5,1
54, test,8, probe,19,2,3,3,2,0.4,0.6, right,2,0.3,0.4,0.6,0.7,1.5823664,0,59.46444702,1.5832936,8,104,3,3,1,6,0.5,1
54, test,8, no_probe,20,4,2,4,2,0.7,0.4, left,1,0.3,0.4,0.6,0.7,0.6525735,1, , ,9,105,1,3,1,6,0.5,1
54, test,8, no_probe,21,4,1,4,1,0.7,0.3, left,1,0.3,0.4,0.6,0.7,0.3958629,0, , ,9,105,2,3,1,6,0.5,1
54, test,8, probe,22,4,2,4,2,0.7,0.4, left,1,0.3,0.4,0.6,0.7,0.377858,1,57.99108887,1.749977,10,106,3,3,1,6,0.5,1
54, test,8, no_probe,23,3,1,1,3,0.6,0.3, right,2,0.3,0.4,0.6,0.7,0.8290806,1, , ,11,107,1,3,1,6,0.5,1
54, test,8, no_probe,24,2,1,2,1,0.4,0.3, left,1,0.3,0.4,0.6,0.7,1.2965287,1, , ,12,108,2,3,1,6,0.5,1
54, test,8, probe,25,4,2,4,2,0.7,0.4, left,1,0.3,0.4,0.6,0.7,0.5097144,0,57.394104,1.6833104,12,108,3,3,1,6,0.5,1
