subject, block_type, block, thought probe, trial, chosen, unchosen, offer_left_image, offer_right_image, exp_value_chosen, exp_value_unchosen, choice_location, choice_key, exp_value1, exp_value2, exp_value3, exp_value4, RT, reward, vas, RT_vas, coins_per_block, coins_per_task, count_to_prob, ntrial_to_prob, ITI_duration,RT_deadline,choice_feedback_duration,outcome_duration
31,practice,1, no_probe,1,4,3,4,3,0.7,0.6, left,1,0.3,0.4,0.6,0.7,2.0621828,1, , ,1,1,1,2,1,6,0.5,1
31,practice,1, probe,2,1,3,1,3,0.3,0.6, left,1,0.3,0.4,0.6,0.7,1.6494377,1,99.64727783,5.7000227,2,2,2,2,1,6,0.5,1
31,practice,1, no_probe,3,1,2,2,1,0.3,0.4, right,2,0.3,0.4,0.6,0.7,1.9884235,0, , ,2,2,1,2,1,6,0.5,1
31,practice,1, probe,4,4,1,1,4,0.7,0.3, right,2,0.3,0.4,0.6,0.7,1.9334805,1,95.69915771,2.716707,3,3,2,2,1,6,0.5,1
31,practice,1, no_probe,5,4,2,2,4,0.7,0.4, right,2,0.3,0.4,0.6,0.7,1.1635008,0, , ,3,3,1,2,1,6,0.5,1
31,practice,1, probe,6,4,2,2,4,0.7,0.4, right,2,0.3,0.4,0.6,0.7,1.1600146,0,96.52801514,5.4833382,3,3,2,2,1,6,0.5,1
31, test,1, no_probe,1,4,3,4,3,0.7,0.6, left,1,0.3,0.4,0.6,0.7,1.1324738,0, , ,0,3,1,3,1,6,0.5,1
31, test,1, no_probe,2,1,2,1,2,0.3,0.4, left,1,0.3,0.4,0.6,0.7,2.1324918,0, , ,0,3,2,3,1,6,0.5,1
31, test,1, probe,3,2,4,4,2,0.4,0.7, right,2,0.3,0.4,0.6,0.7,1.9395428,1,99.99697876,3.8996577,1,4,3,3,1,6,0.5,1
31, test,1, no_probe,4,1,4,4,1,0.3,0.7, right,2,0.3,0.4,0.6,0.7,1.0258305,0, , ,1,4,1,3,1,6,0.5,1
31, test,1, no_probe,5,4,1,4,1,0.7,0.3, left,1,0.3,0.4,0.6,0.7,1.5917639,1, , ,2,5,2,3,1,6,0.5,1
31, test,1, probe,6,2,1,1,2,0.4,0.3, right,2,0.3,0.4,0.6,0.7,0.7017726,0,96.92611694,2.8500102,2,5,3,3,1,6,0.5,1
31, test,1, no_probe,7,4,1,4,1,0.7,0.3, left,1,0.3,0.4,0.6,0.7,1.1157696,1, , ,3,6,1,2,1,6,0.5,1
31, test,1, probe,8,2,1,2,1,0.4,0.3, left,1,0.3,0.4,0.6,0.7,1.1164071,0,83.15466309,3.4166811,3,6,2,2,1,6,0.5,1
31, test,1, no_probe,9,4,1,1,4,0.7,0.3, right,2,0.3,0.4,0.6,0.7,1.9981897,1, , ,4,7,1,3,1,6,0.5,1
31, test,1, no_probe,10,3,4,4,3,0.6,0.7, right,2,0.3,0.4,0.6,0.7,1.3310728,1, , ,5,8,2,3,1,6,0.5,1
31, test,1, probe,11,3,2,3,2,0.6,0.4, left,1,0.3,0.4,0.6,0.7,1.4754843,1,92.87286377,1.9666804,6,9,3,3,1,6,0.5,1
31, test,1, no_probe,12,4,1,4,1,0.7,0.3, left,1,0.3,0.4,0.6,0.7,1.1345993,0, , ,6,9,1,2,1,6,0.5,1
31, test,1, probe,13,3,4,3,4,0.6,0.7, left,1,0.3,0.4,0.6,0.7,1.1573044,1,88.10250854,2.5166452,7,10,2,2,1,6,0.5,1
31, test,1, no_probe,14,1,2,2,1,0.3,0.4, right,2,0.3,0.4,0.6,0.7,0.9674416,0, , ,7,10,1,3,1,6,0.5,1
31, test,1, no_probe,15,2,4,2,4,0.4,0.7, left,1,0.3,0.4,0.6,0.7,1.5149623,0, , ,7,10,2,3,1,6,0.5,1
31, test,1, probe,16,3,1,1,3,0.6,0.3, right,2,0.3,0.4,0.6,0.7,1.4118751,1,76.54675293,1.266681,8,11,3,3,1,6,0.5,1
31, test,1, no_probe,17,3,2,3,2,0.6,0.4, left,1,0.3,0.4,0.6,0.7,1.7672927,1, , ,9,12,1,3,1,6,0.5,1
31, test,1, no_probe,18,3,4,4,3,0.6,0.7, right,2,0.3,0.4,0.6,0.7,0.8379571,1, , ,10,13,2,3,1,6,0.5,1
31, test,1, probe,19,3,1,1,3,0.6,0.3, right,2,0.3,0.4,0.6,0.7,0.9138072,1,90.03881836,1.7333733,11,14,3,3,1,6,0.5,1
31, test,1, no_probe,20,3,4,4,3,0.6,0.7, right,2,0.3,0.4,0.6,0.7,0.7415746,1, , ,12,15,1,3,1,6,0.5,1
31, test,1, no_probe,21,3,2,2,3,0.6,0.4, right,2,0.3,0.4,0.6,0.7,0.5239515,1, , ,13,16,2,3,1,6,0.5,1
31, test,1, probe,22,4,2,4,2,0.7,0.4, left,1,0.3,0.4,0.6,0.7,1.740511,1,88.73171997,1.8000329,14,17,3,3,1,6,0.5,1
31, test,1, no_probe,23,3,2,2,3,0.6,0.4, right,2,0.3,0.4,0.6,0.7,1.2199064,0, , ,14,17,1,3,1,6,0.5,1
31, test,1, no_probe,24,3,1,1,3,0.6,0.3, right,2,0.3,0.4,0.6,0.7,1.3598333,1, , ,15,18,2,3,1,6,0.5,1
31, test,1, probe,25,2,3,2,3,0.4,0.6, left,1,0.3,0.4,0.6,0.7,0.5031826,1,94.8989563,1.733318,16,19,3,3,1,6,0.5,1
31, test,2, no_probe,1,1,2,1,2,0.3,0.4, left,1,0.3,0.4,0.6,0.7,1.0255993,0, , ,0,19,1,2,1,6,0.5,1
31, test,2, probe,2,3,4,4,3,0.6,0.7, right,2,0.3,0.4,0.6,0.7,1.4732866,0,97.20007324,2.5166514,0,19,2,2,1,6,0.5,1
31, test,2, no_probe,3,2,3,2,3,0.4,0.6, left,1,0.3,0.4,0.6,0.7,1.7309828,1, , ,1,20,1,2,1,6,0.5,1
31, test,2, probe,4,2,4,4,2,0.4,0.7, right,2,0.3,0.4,0.6,0.7,3.5151353,0,96.87664795,2.8999814,1,20,2,2,1,6,0.5,1
31, test,2, no_probe,5,1,3,1,3,0.3,0.6, left,1,0.3,0.4,0.6,0.7,1.5892633,0, , ,1,20,1,3,1,6,0.5,1
31, test,2, no_probe,6,2,3,3,2,0.4,0.6, right,2,0.3,0.4,0.6,0.7,1.6072227,0, , ,1,20,2,3,1,6,0.5,1
31, test,2, probe,7,3,2,2,3,0.6,0.4, right,2,0.3,0.4,0.6,0.7,1.1219047,1,95.3425293,2.0166419,2,21,3,3,1,6,0.5,1
31, test,2, no_probe,8,1,2,2,1,0.3,0.4, right,2,0.3,0.4,0.6,0.7,2.2643053,0, , ,2,21,1,3,1,6,0.5,1
31, test,2, no_probe,9,2,1,2,1,0.4,0.3, left,1,0.3,0.4,0.6,0.7,0.9299352,0, , ,2,21,2,3,1,6,0.5,1
31, test,2, probe,10,2,4,4,2,0.4,0.7, right,2,0.3,0.4,0.6,0.7,1.8306871,0,84.71255493,1.4666664,2,21,3,3,1,6,0.5,1
31, test,2, no_probe,11,3,1,3,1,0.6,0.3, left,1,0.3,0.4,0.6,0.7,2.0556124,1, , ,3,22,1,3,1,6,0.5,1
31, test,2, no_probe,12,4,2,4,2,0.7,0.4, left,1,0.3,0.4,0.6,0.7,1.601985,0, , ,3,22,2,3,1,6,0.5,1
31, test,2, probe,13,4,1,4,1,0.7,0.3, left,1,0.3,0.4,0.6,0.7,1.2432561,0,86.72201538,2.0333587,3,22,3,3,1,6,0.5,1
31, test,2, no_probe,14,2,4,2,4,0.4,0.7, left,1,0.3,0.4,0.6,0.7,2.3178164,1, , ,4,23,1,3,1,6,0.5,1
31, test,2, no_probe,15,3,4,3,4,0.6,0.7, left,1,0.3,0.4,0.6,0.7,0.5409413,0, , ,4,23,2,3,1,6,0.5,1
31, test,2, probe,16,4,1,4,1,0.7,0.3, left,1,0.3,0.4,0.6,0.7,1.4622837,1,83.04812622,1.4333263,5,24,3,3,1,6,0.5,1
31, test,2, no_probe,17,2,1,1,2,0.4,0.3, right,2,0.3,0.4,0.6,0.7,1.7459,0, , ,5,24,1,2,1,6,0.5,1
31, test,2, probe,18,3,4,4,3,0.6,0.7, right,2,0.3,0.4,0.6,0.7,1.1704882,1,84.44744873,1.4166713,6,25,2,2,1,6,0.5,1
31, test,2, no_probe,19,3,1,1,3,0.6,0.3, right,2,0.3,0.4,0.6,0.7,1.1715863,1, , ,7,26,1,3,1,6,0.5,1
31, test,2, no_probe,20,1,2,2,1,0.3,0.4, right,2,0.3,0.4,0.6,0.7,1.3449268,0, , ,7,26,2,3,1,6,0.5,1
31, test,2, probe,21,4,3,3,4,0.7,0.6, right,2,0.3,0.4,0.6,0.7,1.4133201,1,96.18692017,1.9333377,8,27,3,3,1,6,0.5,1
31, test,2, no_probe,22,2,3,2,3,0.4,0.6, left,1,0.3,0.4,0.6,0.7,1.5799187,0, , ,8,27,1,2,1,6,0.5,1
31, test,2, probe,23,1,3,3,1,0.3,0.6, right,2,0.3,0.4,0.6,0.7,1.0915863,0,90.84985352,3.1833044,8,27,2,2,1,6,0.5,1
31, test,2, no_probe,24,1,2,2,1,0.3,0.4, right,2,0.3,0.4,0.6,0.7,1.3368511,1, , ,9,28,1,3,1,6,0.5,1
31, test,2, no_probe,25,4,3,3,4,0.7,0.6, right,2,0.3,0.4,0.6,0.7,1.1119195,1, , ,10,29,2,3,1,6,0.5,1
31, test,3, no_probe,1,1,2,2,1,0.3,0.4, right,2,0.3,0.4,0.6,0.7,1.2075217,0, , ,0,29,1,2,1,6,0.5,1
31, test,3, probe,2,2,4,2,4,0.4,0.7, left,1,0.3,0.4,0.6,0.7,2.6000764,0,99.9994812,2.4499982,0,29,2,2,1,6,0.5,1
31, test,3, no_probe,3,3,2,3,2,0.6,0.4, left,1,0.3,0.4,0.6,0.7,1.7429104,0, , ,0,29,1,2,1,6,0.5,1
31, test,3, probe,4,1,4,1,4,0.3,0.7, left,1,0.3,0.4,0.6,0.7,0.7149427,0,37.47503662,2.7333384,0,29,2,2,1,6,0.5,1
31, test,3, no_probe,5,3,1,1,3,0.6,0.3, right,2,0.3,0.4,0.6,0.7,0.9879465,0, , ,0,29,1,2,1,6,0.5,1
31, test,3, probe,6,4,3,3,4,0.7,0.6, right,2,0.3,0.4,0.6,0.7,2.2579402,0,56.61499023,1.0666238,0,29,2,2,1,6,0.5,1
31, test,3, no_probe,7,3,2,2,3,0.6,0.4, right,2,0.3,0.4,0.6,0.7,2.1252738,0, , ,0,29,1,2,1,6,0.5,1
31, test,3, probe,8,3,2,2,3,0.6,0.4, right,2,0.3,0.4,0.6,0.7,1.1619795,0,66.05706787,1.0333276,0,29,2,2,1,6,0.5,1
31, test,3, no_probe,9,2,1,1,2,0.4,0.3, right,2,0.3,0.4,0.6,0.7,2.0034728,0, , ,0,29,1,3,1,6,0.5,1
31, test,3, no_probe,10,2,4,4,2,0.4,0.7, right,2,0.3,0.4,0.6,0.7,0.7328887,0, , ,0,29,2,3,1,6,0.5,1
31, test,3, probe,11,3,2,3,2,0.6,0.4, left,1,0.3,0.4,0.6,0.7,1.040919,0,71.34613037,1.9166497,0,29,3,3,1,6,0.5,1
31, test,3, no_probe,12,1,3,3,1,0.3,0.6, right,2,0.3,0.4,0.6,0.7,1.2938649,0, , ,0,29,1,3,1,6,0.5,1
31, test,3, no_probe,13,2,4,4,2,0.4,0.7, right,2,0.3,0.4,0.6,0.7,1.5038277,0, , ,0,29,2,3,1,6,0.5,1
31, test,3, probe,14,1,2,1,2,0.3,0.4, left,1,0.3,0.4,0.6,0.7,2.0023046,1,65.54278564,3.5999288,1,30,3,3,1,6,0.5,1
31, test,3, no_probe,15,1,3,3,1,0.3,0.6, right,2,0.3,0.4,0.6,0.7,0.4820183,1, , ,2,31,1,3,1,6,0.5,1
31, test,3, no_probe,16,2,4,2,4,0.4,0.7, left,1,0.3,0.4,0.6,0.7,1.7402688,0, , ,2,31,2,3,1,6,0.5,1
31, test,3, probe,17,3,2,2,3,0.6,0.4, right,2,0.3,0.4,0.6,0.7,1.1082103,1,73.18484497,5.033341,3,32,3,3,1,6,0.5,1
31, test,3, no_probe,18,4,3,3,4,0.7,0.6, right,2,0.3,0.4,0.6,0.7,1.6749546,1, , ,4,33,1,2,1,6,0.5,1
31, test,3, abort_trial,19,,,,,,,,,,,,,,,,,,,,,,,,
31, test,3, probe,20,1,3,3,1,0.3,0.6, right,2,0.3,0.4,0.6,0.7,0.5733045,0,36.45880127,1.2999849,4,33,2,2,1,6,0.5,1
31, test,3, no_probe,21,1,3,3,1,0.3,0.6, right,2,0.3,0.4,0.6,0.7,0.9116041,0, , ,4,33,1,2,1,6,0.5,1
31, test,3, probe,22,1,2,1,2,0.3,0.4, left,1,0.3,0.4,0.6,0.7,1.0639005,0,36.94018555,3.1333609,4,33,2,2,1,6,0.5,1
31, test,3, no_probe,23,3,4,3,4,0.6,0.7, left,1,0.3,0.4,0.6,0.7,2.1322077,1, , ,5,34,1,2,1,6,0.5,1
31, test,3, probe,24,1,2,2,1,0.3,0.4, right,2,0.3,0.4,0.6,0.7,0.512219,0,62.81323242,1.1833249,5,34,2,2,1,6,0.5,1
31, test,3, no_probe,25,1,4,4,1,0.3,0.7, right,2,0.3,0.4,0.6,0.7,1.0205683,0, , ,5,34,1,2,1,6,0.5,1
31, test,4, no_probe,1,3,1,3,1,0.6,0.3, left,1,0.3,0.4,0.6,0.7,0.6425705,0, , ,0,34,1,3,1,6,0.5,1
31, test,4, no_probe,2,1,2,2,1,0.3,0.4, right,2,0.3,0.4,0.6,0.7,0.7784488,0, , ,0,34,2,3,1,6,0.5,1
31, test,4, probe,3,2,1,1,2,0.4,0.3, right,2,0.3,0.4,0.6,0.7,2.30015,0,72.57641602,6.4996433,0,34,3,3,1,6,0.5,1
31, test,4, no_probe,4,2,1,1,2,0.4,0.3, right,2,0.3,0.4,0.6,0.7,0.793155,0, , ,0,34,1,2,1,6,0.5,1
31, test,4, probe,5,1,2,1,2,0.3,0.4, left,1,0.3,0.4,0.6,0.7,0.527384,1,87.76016235,3.4666621,1,35,2,2,1,6,0.5,1
31, test,4, no_probe,6,1,3,1,3,0.3,0.6, left,1,0.3,0.4,0.6,0.7,0.4517019,0, , ,1,35,1,3,1,6,0.5,1
31, test,4, no_probe,7,2,4,4,2,0.4,0.7, right,2,0.3,0.4,0.6,0.7,0.7911409,0, , ,1,35,2,3,1,6,0.5,1
31, test,4, probe,8,3,2,3,2,0.6,0.4, left,1,0.3,0.4,0.6,0.7,0.9120853,1,72.65048218,1.4999462,2,36,3,3,1,6,0.5,1
31, test,4, no_probe,9,3,2,2,3,0.6,0.4, right,2,0.3,0.4,0.6,0.7,1.3961263,1, , ,3,37,1,2,1,6,0.5,1
31, test,4, probe,10,1,4,1,4,0.3,0.7, left,1,0.3,0.4,0.6,0.7,1.5781484,1,93.22067261,1.6167279,4,38,2,2,1,6,0.5,1
31, test,4, no_probe,11,4,2,4,2,0.7,0.4, left,1,0.3,0.4,0.6,0.7,2.2948663,1, , ,5,39,1,2,1,6,0.5,1
31, test,4, probe,12,3,2,3,2,0.6,0.4, left,1,0.3,0.4,0.6,0.7,1.2378672,1,93.25027466,1.600006,6,40,2,2,1,6,0.5,1
31, test,4, no_probe,13,1,4,1,4,0.3,0.7, left,1,0.3,0.4,0.6,0.7,0.7074486,0, , ,6,40,1,2,1,6,0.5,1
31, test,4, probe,14,1,4,1,4,0.3,0.7, left,1,0.3,0.4,0.6,0.7,0.5008212,1,90.32116699,1.3000057,7,41,2,2,1,6,0.5,1
31, test,4, no_probe,15,3,2,2,3,0.6,0.4, right,2,0.3,0.4,0.6,0.7,1.1167126,0, , ,7,41,1,2,1,6,0.5,1
31, test,4, probe,16,3,4,4,3,0.6,0.7, right,2,0.3,0.4,0.6,0.7,0.5294331,1,94.69363403,1.449998,8,42,2,2,1,6,0.5,1
31, test,4, no_probe,17,4,2,2,4,0.7,0.4, right,2,0.3,0.4,0.6,0.7,0.9478019,0, , ,8,42,1,3,1,6,0.5,1
31, test,4, no_probe,18,3,2,2,3,0.6,0.4, right,2,0.3,0.4,0.6,0.7,0.8140085,0, , ,8,42,2,3,1,6,0.5,1
31, test,4, probe,19,1,2,1,2,0.3,0.4, left,1,0.3,0.4,0.6,0.7,0.4118268,0,63.64974976,0.9666596,8,42,3,3,1,6,0.5,1
31, test,4, no_probe,20,4,2,2,4,0.7,0.4, right,2,0.3,0.4,0.6,0.7,1.5361858,0, , ,8,42,1,2,1,6,0.5,1
31, test,4, probe,21,1,2,1,2,0.3,0.4, left,1,0.3,0.4,0.6,0.7,0.909143,0,64.57452393,0.9666212,8,42,2,2,1,6,0.5,1
31, test,4, no_probe,22,2,4,4,2,0.4,0.7, right,2,0.3,0.4,0.6,0.7,0.9536427,0, , ,8,42,1,2,1,6,0.5,1
31, test,4, probe,23,3,2,2,3,0.6,0.4, right,2,0.3,0.4,0.6,0.7,0.6218605,0,73.79425049,1.650051,8,42,2,2,1,6,0.5,1
31, test,4, no_probe,24,1,3,1,3,0.3,0.6, left,1,0.3,0.4,0.6,0.7,0.3776379,1, , ,9,43,1,2,1,6,0.5,1
31, test,4, probe,25,3,2,3,2,0.6,0.4, left,1,0.3,0.4,0.6,0.7,0.7297923,1,74.54077148,1.1332763,10,44,2,2,1,6,0.5,1
31, test,5, no_probe,1,2,4,2,4,0.4,0.7, left,1,0.3,0.4,0.6,0.7,1.5468979,1, , ,1,45,1,3,1,6,0.5,1
31, test,5, no_probe,2,4,3,4,3,0.7,0.6, left,1,0.3,0.4,0.6,0.7,0.8791363,1, , ,2,46,2,3,1,6,0.5,1
31, test,5, probe,3,2,1,1,2,0.4,0.3, right,2,0.3,0.4,0.6,0.7,1.5888351,0,83.59231567,1.5329452,2,46,3,3,1,6,0.5,1
31, test,5, no_probe,4,4,1,1,4,0.7,0.3, right,2,0.3,0.4,0.6,0.7,0.6732988,1, , ,3,47,1,3,1,6,0.5,1
31, test,5, no_probe,5,2,3,3,2,0.4,0.6, right,2,0.3,0.4,0.6,0.7,0.7799312,1, , ,4,48,2,3,1,6,0.5,1
31, test,5, probe,6,2,3,3,2,0.4,0.6, right,2,0.3,0.4,0.6,0.7,0.4815939,1,81.16592407,1.1666304,5,49,3,3,1,6,0.5,1
31, test,5, no_probe,7,2,1,1,2,0.4,0.3, right,2,0.3,0.4,0.6,0.7,0.6360782,0, , ,5,49,1,3,1,6,0.5,1
31, test,5, no_probe,8,2,3,3,2,0.4,0.6, right,2,0.3,0.4,0.6,0.7,0.4196513,0, , ,5,49,2,3,1,6,0.5,1
31, test,5, probe,9,3,1,1,3,0.6,0.3, right,2,0.3,0.4,0.6,0.7,1.4052307,1,74.06765747,1.0500112,6,50,3,3,1,6,0.5,1
31, test,5, no_probe,10,4,1,1,4,0.7,0.3, right,2,0.3,0.4,0.6,0.7,0.5912696,1, , ,7,51,1,2,1,6,0.5,1
31, test,5, probe,11,3,4,4,3,0.6,0.7, right,2,0.3,0.4,0.6,0.7,1.1642855,0,72.20007324,0.9999928,7,51,2,2,1,6,0.5,1
31, test,5, no_probe,12,2,1,2,1,0.4,0.3, left,1,0.3,0.4,0.6,0.7,0.9656437,1, , ,8,52,1,3,1,6,0.5,1
31, test,5, no_probe,13,2,4,2,4,0.4,0.7, left,1,0.3,0.4,0.6,0.7,0.4452068,1, , ,9,53,2,3,1,6,0.5,1
31, test,5, probe,14,3,2,2,3,0.6,0.4, right,2,0.3,0.4,0.6,0.7,0.82127,1,87.93060303,1.6333531,10,54,3,3,1,6,0.5,1
31, test,5, no_probe,15,3,1,3,1,0.6,0.3, left,1,0.3,0.4,0.6,0.7,0.7823225,1, , ,11,55,1,2,1,6,0.5,1
31, test,5, probe,16,2,1,1,2,0.4,0.3, right,2,0.3,0.4,0.6,0.7,1.1164423,0,76.79208374,1.2999572,11,55,2,2,1,6,0.5,1
31, test,5, no_probe,17,3,4,4,3,0.6,0.7, right,2,0.3,0.4,0.6,0.7,2.0315994,0, , ,11,55,1,3,1,6,0.5,1
31, test,5, no_probe,18,3,2,2,3,0.6,0.4, right,2,0.3,0.4,0.6,0.7,1.1436841,1, , ,12,56,2,3,1,6,0.5,1
31, test,5, probe,19,4,3,3,4,0.7,0.6, right,2,0.3,0.4,0.6,0.7,0.9126053,0,81.1295166,1.2333439,12,56,3,3,1,6,0.5,1
31, test,5, no_probe,20,4,2,2,4,0.7,0.4, right,2,0.3,0.4,0.6,0.7,1.1666631,1, , ,13,57,1,3,1,6,0.5,1
31, test,5, no_probe,21,2,3,3,2,0.4,0.6, right,2,0.3,0.4,0.6,0.7,2.02486,0, , ,13,57,2,3,1,6,0.5,1
31, test,5, probe,22,2,1,2,1,0.4,0.3, left,1,0.3,0.4,0.6,0.7,0.7302982,1,81.25775146,1.4166456,14,58,3,3,1,6,0.5,1
31, test,5, no_probe,23,4,3,3,4,0.7,0.6, right,2,0.3,0.4,0.6,0.7,0.8532819,1, , ,15,59,1,2,1,6,0.5,1
31, test,5, probe,24,4,1,1,4,0.7,0.3, right,2,0.3,0.4,0.6,0.7,0.5674729,1,80.30609131,1.3166566,16,60,2,2,1,6,0.5,1
31, test,5, no_probe,25,3,1,1,3,0.6,0.3, right,2,0.3,0.4,0.6,0.7,0.9522759,0, , ,16,60,1,3,1,6,0.5,1
31, test,6, no_probe,1,1,4,4,1,0.3,0.7, right,2,0.3,0.4,0.6,0.7,0.9456053,0, , ,0,60,1,3,1,6,0.5,1
31, test,6, no_probe,2,1,2,2,1,0.3,0.4, right,2,0.3,0.4,0.6,0.7,1.1567287,1, , ,1,61,2,3,1,6,0.5,1
31, test,6, probe,3,1,4,1,4,0.3,0.7, left,1,0.3,0.4,0.6,0.7,0.7080439,0,70.71081543,1.0996153,1,61,3,3,1,6,0.5,1
31, test,6, no_probe,4,2,3,3,2,0.4,0.6, right,2,0.3,0.4,0.6,0.7,1.2530058,0, , ,1,61,1,3,1,6,0.5,1
31, test,6, no_probe,5,4,2,2,4,0.7,0.4, right,2,0.3,0.4,0.6,0.7,0.6882878,1, , ,2,62,2,3,1,6,0.5,1
31, test,6, probe,6,3,1,1,3,0.6,0.3, right,2,0.3,0.4,0.6,0.7,0.453328,0,67.66363525,0.950026,2,62,3,3,1,6,0.5,1
31, test,6, no_probe,7,4,3,4,3,0.7,0.6, left,1,0.3,0.4,0.6,0.7,1.0453,1, , ,3,63,1,3,1,6,0.5,1
31, test,6, no_probe,8,4,3,4,3,0.7,0.6, left,1,0.3,0.4,0.6,0.7,0.3419518,1, , ,4,64,2,3,1,6,0.5,1
31, test,6, probe,9,4,1,1,4,0.7,0.3, right,2,0.3,0.4,0.6,0.7,0.3492781,1,81.51074219,1.1333503,5,65,3,3,1,6,0.5,1
31, test,6, no_probe,10,1,2,1,2,0.3,0.4, left,1,0.3,0.4,0.6,0.7,0.8783619,0, , ,5,65,1,2,1,6,0.5,1
31, test,6, probe,11,3,1,1,3,0.6,0.3, right,2,0.3,0.4,0.6,0.7,1.4816073,0,75.03488159,1.1833105,5,65,2,2,1,6,0.5,1
31, test,6, no_probe,12,4,1,1,4,0.7,0.3, right,2,0.3,0.4,0.6,0.7,0.5499741,1, , ,6,66,1,2,1,6,0.5,1
31, test,6, probe,13,2,1,2,1,0.4,0.3, left,1,0.3,0.4,0.6,0.7,0.9133641,1,87.40560913,1.1999865,7,67,2,2,1,6,0.5,1
31, test,6, no_probe,14,2,1,1,2,0.4,0.3, right,2,0.3,0.4,0.6,0.7,1.5773014,0, , ,7,67,1,2,1,6,0.5,1
31, test,6, probe,15,4,3,3,4,0.7,0.6, right,2,0.3,0.4,0.6,0.7,0.3760117,1,76.63760376,1.5500181,8,68,2,2,1,6,0.5,1
31, test,6, no_probe,16,4,1,4,1,0.7,0.3, left,1,0.3,0.4,0.6,0.7,0.4353365,1, , ,9,69,1,3,1,6,0.5,1
31, test,6, no_probe,17,4,2,4,2,0.7,0.4, left,1,0.3,0.4,0.6,0.7,0.3632776,0, , ,9,69,2,3,1,6,0.5,1
31, test,6, probe,18,2,4,4,2,0.4,0.7, right,2,0.3,0.4,0.6,0.7,0.5706718,1,82.30126953,1.1499899,10,70,3,3,1,6,0.5,1
31, test,6, no_probe,19,4,3,3,4,0.7,0.6, right,2,0.3,0.4,0.6,0.7,0.6339016,1, , ,11,71,1,3,1,6,0.5,1
31, test,6, no_probe,20,2,1,2,1,0.4,0.3, left,1,0.3,0.4,0.6,0.7,1.0179282,0, , ,11,71,2,3,1,6,0.5,1
31, test,6, probe,21,4,1,1,4,0.7,0.3, right,2,0.3,0.4,0.6,0.7,1.1625687,1,87.3213501,1.316696,12,72,3,3,1,6,0.5,1
31, test,6, no_probe,22,1,3,1,3,0.3,0.6, left,1,0.3,0.4,0.6,0.7,1.2645844,0, , ,12,72,1,2,1,6,0.5,1
31, test,6, probe,23,2,1,2,1,0.4,0.3, left,1,0.3,0.4,0.6,0.7,0.9876474,1,84.52645874,1.1832927,13,73,2,2,1,6,0.5,1
31, test,6, no_probe,24,4,2,4,2,0.7,0.4, left,1,0.3,0.4,0.6,0.7,1.0239326,0, , ,13,73,1,2,1,6,0.5,1
31, test,6, probe,25,2,1,2,1,0.4,0.3, left,1,0.3,0.4,0.6,0.7,0.9405582,0,36.86282349,1.0333116,13,73,2,2,1,6,0.5,1
31, test,7, no_probe,1,2,4,4,2,0.4,0.7, right,2,0.3,0.4,0.6,0.7,0.8051939,1, , ,1,74,1,3,1,6,0.5,1
31, test,7, no_probe,2,3,4,3,4,0.6,0.7, left,1,0.3,0.4,0.6,0.7,1.4073379,0, , ,1,74,2,3,1,6,0.5,1
31, test,7, probe,3,2,1,1,2,0.4,0.3, right,2,0.3,0.4,0.6,0.7,0.8089302,0,61.09844971,1.4663275,1,74,3,3,1,6,0.5,1
31, test,7, no_probe,4,4,1,1,4,0.7,0.3, right,2,0.3,0.4,0.6,0.7,1.2932673,0, , ,1,74,1,3,1,6,0.5,1
31, test,7, no_probe,5,1,2,1,2,0.3,0.4, left,1,0.3,0.4,0.6,0.7,0.7600135,0, , ,1,74,2,3,1,6,0.5,1
31, test,7, probe,6,1,4,1,4,0.3,0.7, left,1,0.3,0.4,0.6,0.7,0.4954076,0,76.46246338,1.4833523,1,74,3,3,1,6,0.5,1
31, test,7, no_probe,7,2,4,4,2,0.4,0.7, right,2,0.3,0.4,0.6,0.7,1.5361825,0, , ,1,74,1,3,1,6,0.5,1
31, test,7, no_probe,8,4,1,4,1,0.7,0.3, left,1,0.3,0.4,0.6,0.7,0.5557088,1, , ,2,75,2,3,1,6,0.5,1
31, test,7, probe,9,2,3,3,2,0.4,0.6, right,2,0.3,0.4,0.6,0.7,0.691505,0,62.58166504,1.2500166,2,75,3,3,1,6,0.5,1
31, test,7, no_probe,10,4,1,1,4,0.7,0.3, right,2,0.3,0.4,0.6,0.7,1.766166,1, , ,3,76,1,2,1,6,0.5,1
31, test,7, probe,11,1,3,1,3,0.3,0.6, left,1,0.3,0.4,0.6,0.7,0.7817996,1,72.9864502,1.1833415,4,77,2,2,1,6,0.5,1
31, test,7, no_probe,12,4,2,4,2,0.7,0.4, left,1,0.3,0.4,0.6,0.7,1.4779303,1, , ,5,78,1,3,1,6,0.5,1
31, test,7, no_probe,13,3,1,1,3,0.6,0.3, right,2,0.3,0.4,0.6,0.7,1.261563,1, , ,6,79,2,3,1,6,0.5,1
31, test,7, probe,14,1,2,1,2,0.3,0.4, left,1,0.3,0.4,0.6,0.7,0.9284113,0,80.74212646,1.5000009,6,79,3,3,1,6,0.5,1
31, test,7, no_probe,15,4,2,2,4,0.7,0.4, right,2,0.3,0.4,0.6,0.7,0.9552694,1, , ,7,80,1,3,1,6,0.5,1
31, test,7, no_probe,16,4,2,4,2,0.7,0.4, left,1,0.3,0.4,0.6,0.7,0.7784031,1, , ,8,81,2,3,1,6,0.5,1
31, test,7, probe,17,4,1,1,4,0.7,0.3, right,2,0.3,0.4,0.6,0.7,0.4411108,1,85.6416626,1.6999899,9,82,3,3,1,6,0.5,1
31, test,7, no_probe,18,1,3,1,3,0.3,0.6, left,1,0.3,0.4,0.6,0.7,0.8717559,1, , ,10,83,1,2,1,6,0.5,1
31, test,7, probe,19,2,3,3,2,0.4,0.6, right,2,0.3,0.4,0.6,0.7,0.9673666,1,73.54675293,1.5999845,11,84,2,2,1,6,0.5,1
31, test,7, no_probe,20,4,3,3,4,0.7,0.6, right,2,0.3,0.4,0.6,0.7,1.6599394,1, , ,12,85,1,2,1,6,0.5,1
31, test,7, probe,21,4,3,3,4,0.7,0.6, right,2,0.3,0.4,0.6,0.7,0.3360691,1,84.67175293,1.6166573,13,86,2,2,1,6,0.5,1
31, test,7, no_probe,22,4,1,4,1,0.7,0.3, left,1,0.3,0.4,0.6,0.7,1.1022176,1, , ,14,87,1,3,1,6,0.5,1
31, test,7, no_probe,23,1,2,1,2,0.3,0.4, left,1,0.3,0.4,0.6,0.7,0.742358,0, , ,14,87,2,3,1,6,0.5,1
31, test,7, probe,24,2,3,2,3,0.4,0.6, left,1,0.3,0.4,0.6,0.7,0.3666239,0,71.27984619,1.2999796,14,87,3,3,1,6,0.5,1
31, test,7, no_probe,25,1,3,1,3,0.3,0.6, left,1,0.3,0.4,0.6,0.7,1.259894,0, , ,14,87,1,3,1,6,0.5,1
31, test,8, no_probe,1,2,4,2,4,0.4,0.7, left,1,0.3,0.4,0.6,0.7,1.2054176,0, , ,0,87,1,2,1,6,0.5,1
31, test,8, probe,2,3,2,3,2,0.6,0.4, left,1,0.3,0.4,0.6,0.7,0.6105843,0,42.34158325,1.6166395,0,87,2,2,1,6,0.5,1
31, test,8, no_probe,3,1,4,4,1,0.3,0.7, right,2,0.3,0.4,0.6,0.7,0.5343403,0, , ,0,87,1,2,1,6,0.5,1
31, test,8, probe,4,4,2,4,2,0.7,0.4, left,1,0.3,0.4,0.6,0.7,1.2499709,1,57.29608154,1.4833896,1,88,2,2,1,6,0.5,1
31, test,8, no_probe,5,1,3,3,1,0.3,0.6, right,2,0.3,0.4,0.6,0.7,1.7804217,1, , ,2,89,1,2,1,6,0.5,1
31, test,8, probe,6,1,2,1,2,0.3,0.4, left,1,0.3,0.4,0.6,0.7,1.4115683,0,45.25805664,1.6333516,2,89,2,2,1,6,0.5,1
31, test,8, no_probe,7,2,3,2,3,0.4,0.6, left,1,0.3,0.4,0.6,0.7,2.5462861,1, , ,3,90,1,3,1,6,0.5,1
31, test,8, no_probe,8,4,1,1,4,0.7,0.3, right,2,0.3,0.4,0.6,0.7,1.1972773,0, , ,3,90,2,3,1,6,0.5,1
31, test,8, probe,9,4,2,4,2,0.7,0.4, left,1,0.3,0.4,0.6,0.7,1.1939768,1,62.68353271,0.8166698,4,91,3,3,1,6,0.5,1
31, test,8, no_probe,10,4,1,1,4,0.7,0.3, right,2,0.3,0.4,0.6,0.7,0.7515776,1, , ,5,92,1,3,1,6,0.5,1
31, test,8, no_probe,11,1,3,3,1,0.3,0.6, right,2,0.3,0.4,0.6,0.7,0.8457414,1, , ,6,93,2,3,1,6,0.5,1
31, test,8, probe,12,4,3,4,3,0.7,0.6, left,1,0.3,0.4,0.6,0.7,0.7379754,1,69.01345825,1.016673,7,94,3,3,1,6,0.5,1
31, test,8, no_probe,13,4,3,3,4,0.7,0.6, right,2,0.3,0.4,0.6,0.7,0.6554468,1, , ,8,95,1,2,1,6,0.5,1
31, test,8, probe,14,2,3,2,3,0.4,0.6, left,1,0.3,0.4,0.6,0.7,0.8122259,0,69.59368896,1.0666899,8,95,2,2,1,6,0.5,1
31, test,8, no_probe,15,2,3,2,3,0.4,0.6, left,1,0.3,0.4,0.6,0.7,0.7845822,1, , ,9,96,1,3,1,6,0.5,1
31, test,8, no_probe,16,2,3,3,2,0.4,0.6, right,2,0.3,0.4,0.6,0.7,1.1356614,0, , ,9,96,2,3,1,6,0.5,1
31, test,8, probe,17,2,4,4,2,0.4,0.7, right,2,0.3,0.4,0.6,0.7,0.7595951,0,70.58920288,1.0666653,9,96,3,3,1,6,0.5,1
31, test,8, no_probe,18,2,1,2,1,0.4,0.3, left,1,0.3,0.4,0.6,0.7,0.7149807,0, , ,9,96,1,2,1,6,0.5,1
31, test,8, probe,19,2,1,1,2,0.4,0.3, right,2,0.3,0.4,0.6,0.7,0.8956398,0,24.68969727,1.6666431,9,96,2,2,1,6,0.5,1
31, test,8, no_probe,20,2,1,2,1,0.4,0.3, left,1,0.3,0.4,0.6,0.7,1.3076233,0, , ,9,96,1,2,1,6,0.5,1
31, test,8, probe,21,4,1,1,4,0.7,0.3, right,2,0.3,0.4,0.6,0.7,0.6689542,1,39.63174438,1.1000183,10,97,2,2,1,6,0.5,1
31, test,8, no_probe,22,4,3,4,3,0.7,0.6, left,1,0.3,0.4,0.6,0.7,0.7945298,1, , ,11,98,1,2,1,6,0.5,1
31, test,8, probe,23,2,1,2,1,0.4,0.3, left,1,0.3,0.4,0.6,0.7,0.5779316,1,44.15319824,1.533315,12,99,2,2,1,6,0.5,1
31, test,8, no_probe,24,2,4,4,2,0.4,0.7, right,2,0.3,0.4,0.6,0.7,2.8092632,0, , ,12,99,1,2,1,6,0.5,1
31, test,8, probe,25,1,3,1,3,0.3,0.6, left,1,0.3,0.4,0.6,0.7,1.0095747,0,36.98562622,2.3000399,12,99,2,2,1,6,0.5,1
