subject, block_type, block, thought probe, trial, chosen, unchosen, offer_left_image, offer_right_image, exp_value_chosen, exp_value_unchosen, choice_location, choice_key, exp_value1, exp_value2, exp_value3, exp_value4, RT, reward, vas, RT_vas, coins_per_block, coins_per_task, count_to_prob, ntrial_to_prob, ITI_duration,RT_deadline,choice_feedback_duration,outcome_duration
38,practice,1, no_probe,1,3,1,3,1,0.6,0.3, left,1,0.3,0.4,0.6,0.7,1.7953281,1, , ,1,1,1,2,1,6,0.5,1
38,practice,1, probe,2,1,2,1,2,0.3,0.4, left,1,0.3,0.4,0.6,0.7,0.969615,0,99.99902344,4.5345916,1,1,2,2,1,6,0.5,1
38,practice,1, no_probe,3,2,3,3,2,0.4,0.6, right,2,0.3,0.4,0.6,0.7,1.4137041,1, , ,2,2,1,2,1,6,0.5,1
38,practice,1, probe,4,2,1,1,2,0.4,0.3, right,2,0.3,0.4,0.6,0.7,0.782488,1,99.99908447,3.0999837,3,3,2,2,1,6,0.5,1
38,practice,1, no_probe,5,3,4,3,4,0.6,0.7, left,1,0.3,0.4,0.6,0.7,1.0215789,1, , ,4,4,1,2,1,6,0.5,1
38,practice,1, probe,6,3,4,3,4,0.6,0.7, left,1,0.3,0.4,0.6,0.7,0.7349207,1,100,2.5333066,5,5,2,2,1,6,0.5,1
38, test,1, no_probe,1,3,4,3,4,0.6,0.7, left,1,0.3,0.4,0.6,0.7,0.9294389,1, , ,1,6,1,3,1,6,0.5,1
38, test,1, no_probe,2,3,4,4,3,0.6,0.7, right,2,0.3,0.4,0.6,0.7,0.9212096,1, , ,2,7,2,3,1,6,0.5,1
38, test,1, probe,3,2,1,2,1,0.4,0.3, left,1,0.3,0.4,0.6,0.7,1.0573647,0,99.99966431,2.5496514,2,7,3,3,1,6,0.5,1
38, test,1, no_probe,4,1,4,4,1,0.3,0.7, right,2,0.3,0.4,0.6,0.7,1.4664316,0, , ,2,7,1,3,1,6,0.5,1
38, test,1, no_probe,5,2,1,1,2,0.4,0.3, right,2,0.3,0.4,0.6,0.7,1.1969704,0, , ,2,7,2,3,1,6,0.5,1
38, test,1, probe,6,2,4,4,2,0.4,0.7, right,2,0.3,0.4,0.6,0.7,0.8207826,0,99.99829102,2.8166529,2,7,3,3,1,6,0.5,1
38, test,1, no_probe,7,1,2,2,1,0.3,0.4, right,2,0.3,0.4,0.6,0.7,1.3115328,1, , ,3,8,1,2,1,6,0.5,1
38, test,1, probe,8,1,2,1,2,0.3,0.4, left,1,0.3,0.4,0.6,0.7,0.9612487,0,99.99954224,2.5666449,3,8,2,2,1,6,0.5,1
38, test,1, no_probe,9,3,4,4,3,0.6,0.7, right,2,0.3,0.4,0.6,0.7,1.5489626,1, , ,4,9,1,2,1,6,0.5,1
38, test,1, probe,10,1,4,1,4,0.3,0.7, left,1,0.3,0.4,0.6,0.7,0.8234012,1,99.99960327,1.9499208,5,10,2,2,1,6,0.5,1
38, test,1, no_probe,11,1,3,1,3,0.3,0.6, left,1,0.3,0.4,0.6,0.7,0.784878,0, , ,5,10,1,3,1,6,0.5,1
38, test,1, no_probe,12,3,2,2,3,0.6,0.4, right,2,0.3,0.4,0.6,0.7,0.4483908,1, , ,6,11,2,3,1,6,0.5,1
38, test,1, probe,13,1,4,1,4,0.3,0.7, left,1,0.3,0.4,0.6,0.7,0.9153222,0,99.99966431,1.7166741,6,11,3,3,1,6,0.5,1
38, test,1, no_probe,14,3,1,3,1,0.6,0.3, left,1,0.3,0.4,0.6,0.7,0.5126967,0, , ,6,11,1,2,1,6,0.5,1
38, test,1, probe,15,3,4,4,3,0.6,0.7, right,2,0.3,0.4,0.6,0.7,0.6112061,0,96.95010376,1.9332813,6,11,2,2,1,6,0.5,1
38, test,1, no_probe,16,4,2,4,2,0.7,0.4, left,1,0.3,0.4,0.6,0.7,1.0450459,1, , ,7,12,1,2,1,6,0.5,1
38, test,1, probe,17,4,2,2,4,0.7,0.4, right,2,0.3,0.4,0.6,0.7,0.7323585,0,99.99972534,1.6332904,7,12,2,2,1,6,0.5,1
38, test,1, no_probe,18,3,2,3,2,0.6,0.4, left,1,0.3,0.4,0.6,0.7,0.4579921,1, , ,8,13,1,2,1,6,0.5,1
38, test,1, probe,19,3,4,3,4,0.6,0.7, left,1,0.3,0.4,0.6,0.7,0.3812575,1,99.99975586,1.7332919,9,14,2,2,1,6,0.5,1
38, test,1, no_probe,20,4,2,2,4,0.7,0.4, right,2,0.3,0.4,0.6,0.7,0.8879847,1, , ,10,15,1,2,1,6,0.5,1
38, test,1, probe,21,4,3,3,4,0.7,0.6, right,2,0.3,0.4,0.6,0.7,0.5948833,1,99.26834106,1.633293,11,16,2,2,1,6,0.5,1
38, test,1, no_probe,22,1,2,2,1,0.3,0.4, right,2,0.3,0.4,0.6,0.7,0.6862274,0, , ,11,16,1,3,1,6,0.5,1
38, test,1, no_probe,23,3,2,2,3,0.6,0.4, right,2,0.3,0.4,0.6,0.7,0.6273169,0, , ,11,16,2,3,1,6,0.5,1
38, test,1, probe,24,3,2,3,2,0.6,0.4, left,1,0.3,0.4,0.6,0.7,0.5953431,0,95.13052368,4.0665999,11,16,3,3,1,6,0.5,1
38, test,1, no_probe,25,2,3,3,2,0.4,0.6, right,2,0.3,0.4,0.6,0.7,0.8644945,1, , ,12,17,1,3,1,6,0.5,1
38, test,2, no_probe,1,4,1,4,1,0.7,0.3, left,1,0.3,0.4,0.6,0.7,0.6935188,0, , ,0,17,1,2,1,6,0.5,1
38, test,2, probe,2,1,4,4,1,0.3,0.7, right,2,0.3,0.4,0.6,0.7,0.6941329,0,91.8380127,3.0659871,0,17,2,2,1,6,0.5,1
38, test,2, no_probe,3,4,2,2,4,0.7,0.4, right,2,0.3,0.4,0.6,0.7,0.8013931,1, , ,1,18,1,2,1,6,0.5,1
38, test,2, probe,4,2,3,3,2,0.4,0.6, right,2,0.3,0.4,0.6,0.7,0.8817033,1,79.80618286,4.3499362,2,19,2,2,1,6,0.5,1
38, test,2, no_probe,5,3,2,3,2,0.6,0.4, left,1,0.3,0.4,0.6,0.7,0.5766513,0, , ,2,19,1,3,1,6,0.5,1
38, test,2, no_probe,6,4,3,4,3,0.7,0.6, left,1,0.3,0.4,0.6,0.7,1.2231545,0, , ,2,19,2,3,1,6,0.5,1
38, test,2, probe,7,3,4,4,3,0.6,0.7, right,2,0.3,0.4,0.6,0.7,0.9284452,1,85.91616821,2.4332981,3,20,3,3,1,6,0.5,1
38, test,2, no_probe,8,1,4,1,4,0.3,0.7, left,1,0.3,0.4,0.6,0.7,1.0179851,1, , ,4,21,1,3,1,6,0.5,1
38, test,2, no_probe,9,1,2,2,1,0.3,0.4, right,2,0.3,0.4,0.6,0.7,0.6622216,0, , ,4,21,2,3,1,6,0.5,1
38, test,2, probe,10,3,4,3,4,0.6,0.7, left,1,0.3,0.4,0.6,0.7,1.3291095,0,73.0112915,3.9499569,4,21,3,3,1,6,0.5,1
38, test,2, no_probe,11,2,3,3,2,0.4,0.6, right,2,0.3,0.4,0.6,0.7,0.5420847,0, , ,4,21,1,2,1,6,0.5,1
38, test,2, probe,12,3,1,1,3,0.6,0.3, right,2,0.3,0.4,0.6,0.7,1.2059923,0,75.47402954,2.6665845,4,21,2,2,1,6,0.5,1
38, test,2, no_probe,13,1,4,1,4,0.3,0.7, left,1,0.3,0.4,0.6,0.7,1.4789902,1, , ,5,22,1,3,1,6,0.5,1
38, test,2, no_probe,14,1,2,2,1,0.3,0.4, right,2,0.3,0.4,0.6,0.7,0.5945498,0, , ,5,22,2,3,1,6,0.5,1
38, test,2, probe,15,4,3,4,3,0.7,0.6, left,1,0.3,0.4,0.6,0.7,1.9263167,1,90.04989624,2.0999776,6,23,3,3,1,6,0.5,1
38, test,2, no_probe,16,4,2,4,2,0.7,0.4, left,1,0.3,0.4,0.6,0.7,0.5265137,1, , ,7,24,1,3,1,6,0.5,1
38, test,2, no_probe,17,2,1,2,1,0.4,0.3, left,1,0.3,0.4,0.6,0.7,1.2189481,1, , ,8,25,2,3,1,6,0.5,1
38, test,2, probe,18,1,3,1,3,0.3,0.6, left,1,0.3,0.4,0.6,0.7,1.395186,0,86.83108521,1.8499471,8,25,3,3,1,6,0.5,1
38, test,2, no_probe,19,1,3,3,1,0.3,0.6, right,2,0.3,0.4,0.6,0.7,1.1138009,1, , ,9,26,1,3,1,6,0.5,1
38, test,2, no_probe,20,4,1,1,4,0.7,0.3, right,2,0.3,0.4,0.6,0.7,0.5709526,1, , ,10,27,2,3,1,6,0.5,1
38, test,2, probe,21,2,3,2,3,0.4,0.6, left,1,0.3,0.4,0.6,0.7,1.3572367,0,82.85699463,2.4333002,10,27,3,3,1,6,0.5,1
38, test,2, no_probe,22,1,3,3,1,0.3,0.6, right,2,0.3,0.4,0.6,0.7,0.5748375,0, , ,10,27,1,2,1,6,0.5,1
38, test,2, probe,23,1,2,1,2,0.3,0.4, left,1,0.3,0.4,0.6,0.7,0.3519503,1,88.71569824,3.4832904,11,28,2,2,1,6,0.5,1
38, test,2, no_probe,24,1,2,1,2,0.3,0.4, left,1,0.3,0.4,0.6,0.7,0.5882026,1, , ,12,29,1,3,1,6,0.5,1
38, test,2, no_probe,25,4,1,1,4,0.7,0.3, right,2,0.3,0.4,0.6,0.7,0.5891982,0, , ,12,29,2,3,1,6,0.5,1
38, test,3, no_probe,1,1,3,1,3,0.3,0.6, left,1,0.3,0.4,0.6,0.7,1.6670215,0, , ,0,29,1,3,1,6,0.5,1
38, test,3, no_probe,2,1,3,3,1,0.3,0.6, right,2,0.3,0.4,0.6,0.7,0.3657354,0, , ,0,29,2,3,1,6,0.5,1
38, test,3, probe,3,2,3,3,2,0.4,0.6, right,2,0.3,0.4,0.6,0.7,1.2969259,0,68.78479004,2.6496493,0,29,3,3,1,6,0.5,1
38, test,3, no_probe,4,3,1,1,3,0.6,0.3, right,2,0.3,0.4,0.6,0.7,0.9230059,1, , ,1,30,1,3,1,6,0.5,1
38, test,3, no_probe,5,4,1,1,4,0.7,0.3, right,2,0.3,0.4,0.6,0.7,0.8713004,1, , ,2,31,2,3,1,6,0.5,1
38, test,3, probe,6,4,1,4,1,0.7,0.3, left,1,0.3,0.4,0.6,0.7,1.4417585,1,86.21887207,1.933377,3,32,3,3,1,6,0.5,1
38, test,3, no_probe,7,4,2,4,2,0.7,0.4, left,1,0.3,0.4,0.6,0.7,0.6030951,1, , ,4,33,1,2,1,6,0.5,1
38, test,3, probe,8,4,1,4,1,0.7,0.3, left,1,0.3,0.4,0.6,0.7,0.3773284,1,89.28787231,2.1332688,5,34,2,2,1,6,0.5,1
38, test,3, no_probe,9,4,1,4,1,0.7,0.3, left,1,0.3,0.4,0.6,0.7,0.7413435,1, , ,6,35,1,2,1,6,0.5,1
38, test,3, probe,10,3,2,3,2,0.6,0.4, left,1,0.3,0.4,0.6,0.7,0.6568361,1,92.84017944,2.2999775,7,36,2,2,1,6,0.5,1
38, test,3, no_probe,11,4,2,4,2,0.7,0.4, left,1,0.3,0.4,0.6,0.7,0.8347602,1, , ,8,37,1,3,1,6,0.5,1
38, test,3, no_probe,12,1,2,2,1,0.3,0.4, right,2,0.3,0.4,0.6,0.7,0.3634481,0, , ,8,37,2,3,1,6,0.5,1
38, test,3, probe,13,1,4,1,4,0.3,0.7, left,1,0.3,0.4,0.6,0.7,0.5028902,0,80.50704956,2.1166669,8,37,3,3,1,6,0.5,1
38, test,3, no_probe,14,3,2,2,3,0.6,0.4, right,2,0.3,0.4,0.6,0.7,2.6372011,0, , ,8,37,1,2,1,6,0.5,1
38, test,3, probe,15,4,1,1,4,0.7,0.3, right,2,0.3,0.4,0.6,0.7,0.8813494,1,78.94903564,2.2832578,9,38,2,2,1,6,0.5,1
38, test,3, no_probe,16,3,4,4,3,0.6,0.7, right,2,0.3,0.4,0.6,0.7,0.5586472,1, , ,10,39,1,3,1,6,0.5,1
38, test,3, no_probe,17,4,2,2,4,0.7,0.4, right,2,0.3,0.4,0.6,0.7,0.3653162,0, , ,10,39,2,3,1,6,0.5,1
38, test,3, probe,18,4,1,4,1,0.7,0.3, left,1,0.3,0.4,0.6,0.7,0.5060511,1,77.13864136,1.3666177,11,40,3,3,1,6,0.5,1
38, test,3, no_probe,19,1,4,1,4,0.3,0.7, left,1,0.3,0.4,0.6,0.7,0.5628294,0, , ,11,40,1,3,1,6,0.5,1
38, test,3, no_probe,20,2,3,3,2,0.4,0.6, right,2,0.3,0.4,0.6,0.7,0.728547,1, , ,12,41,2,3,1,6,0.5,1
38, test,3, probe,21,2,1,2,1,0.4,0.3, left,1,0.3,0.4,0.6,0.7,0.5005862,0,49.99761963,1.2999621,12,41,3,3,1,6,0.5,1
38, test,3, no_probe,22,2,1,1,2,0.4,0.3, right,2,0.3,0.4,0.6,0.7,1.6889938,0, , ,12,41,1,3,1,6,0.5,1
38, test,3, no_probe,23,1,3,1,3,0.3,0.6, left,1,0.3,0.4,0.6,0.7,0.663564,0, , ,12,41,2,3,1,6,0.5,1
38, test,3, probe,24,1,3,3,1,0.3,0.6, right,2,0.3,0.4,0.6,0.7,0.8254981,0,72.74667358,3.5499844,12,41,3,3,1,6,0.5,1
38, test,3, no_probe,25,2,3,2,3,0.4,0.6, left,1,0.3,0.4,0.6,0.7,1.1794941,0, , ,12,41,1,3,1,6,0.5,1
38, test,4, no_probe,1,3,4,4,3,0.6,0.7, right,2,0.3,0.4,0.6,0.7,0.5223962,0, , ,0,41,1,2,1,6,0.5,1
38, test,4, probe,2,2,3,3,2,0.4,0.6, right,2,0.3,0.4,0.6,0.7,0.3951935,0,78.99746704,2.4666187,0,41,2,2,1,6,0.5,1
38, test,4, no_probe,3,2,3,3,2,0.4,0.6, right,2,0.3,0.4,0.6,0.7,0.9364026,1, , ,1,42,1,3,1,6,0.5,1
38, test,4, no_probe,4,4,1,1,4,0.7,0.3, right,2,0.3,0.4,0.6,0.7,0.6475727,1, , ,2,43,2,3,1,6,0.5,1
38, test,4, probe,5,3,1,3,1,0.6,0.3, left,1,0.3,0.4,0.6,0.7,0.8479093,1,85.58474731,1.9166299,3,44,3,3,1,6,0.5,1
38, test,4, no_probe,6,1,2,2,1,0.3,0.4, right,2,0.3,0.4,0.6,0.7,0.7044523,0, , ,3,44,1,3,1,6,0.5,1
38, test,4, no_probe,7,2,1,2,1,0.4,0.3, left,1,0.3,0.4,0.6,0.7,0.2864091,1, , ,4,45,2,3,1,6,0.5,1
38, test,4, probe,8,2,1,1,2,0.4,0.3, right,2,0.3,0.4,0.6,0.7,0.5591388,0,78.71337891,1.2499978,4,45,3,3,1,6,0.5,1
38, test,4, no_probe,9,4,1,1,4,0.7,0.3, right,2,0.3,0.4,0.6,0.7,0.5004714,0, , ,4,45,1,3,1,6,0.5,1
38, test,4, no_probe,10,2,3,2,3,0.4,0.6, left,1,0.3,0.4,0.6,0.7,0.2566789,0, , ,4,45,2,3,1,6,0.5,1
38, test,4, probe,11,4,2,2,4,0.7,0.4, right,2,0.3,0.4,0.6,0.7,0.3616233,0,76.23260498,1.2499894,4,45,3,3,1,6,0.5,1
38, test,4, no_probe,12,3,4,3,4,0.6,0.7, left,1,0.3,0.4,0.6,0.7,0.3558202,0, , ,4,45,1,3,1,6,0.5,1
38, test,4, no_probe,13,1,3,3,1,0.3,0.6, right,2,0.3,0.4,0.6,0.7,0.3716921,0, , ,4,45,2,3,1,6,0.5,1
38, test,4, probe,14,2,3,2,3,0.4,0.6, left,1,0.3,0.4,0.6,0.7,0.202439,1,60.81533813,2.549973,5,46,3,3,1,6,0.5,1
38, test,4, no_probe,15,1,3,3,1,0.3,0.6, right,2,0.3,0.4,0.6,0.7,0.8038248,0, , ,5,46,1,2,1,6,0.5,1
38, test,4, probe,16,2,1,2,1,0.4,0.3, left,1,0.3,0.4,0.6,0.7,0.2086439,1,62.10699463,2.9666315,6,47,2,2,1,6,0.5,1
38, test,4, no_probe,17,3,4,4,3,0.6,0.7, right,2,0.3,0.4,0.6,0.7,0.6548601,1, , ,7,48,1,3,1,6,0.5,1
38, test,4, no_probe,18,3,4,3,4,0.6,0.7, left,1,0.3,0.4,0.6,0.7,0.4830561,1, , ,8,49,2,3,1,6,0.5,1
38, test,4, probe,19,2,1,1,2,0.4,0.3, right,2,0.3,0.4,0.6,0.7,0.66357,1,77.61029053,2.6999993,9,50,3,3,1,6,0.5,1
38, test,4, no_probe,20,3,4,3,4,0.6,0.7, left,1,0.3,0.4,0.6,0.7,1.1454292,1, , ,10,51,1,2,1,6,0.5,1
38, test,4, probe,21,1,4,1,4,0.3,0.7, left,1,0.3,0.4,0.6,0.7,0.44076,0,70.93624878,1.9832861,10,51,2,2,1,6,0.5,1
38, test,4, no_probe,22,2,1,1,2,0.4,0.3, right,2,0.3,0.4,0.6,0.7,0.4640217,1, , ,11,52,1,3,1,6,0.5,1
38, test,4, no_probe,23,1,3,1,3,0.3,0.6, left,1,0.3,0.4,0.6,0.7,0.3314832,0, , ,11,52,2,3,1,6,0.5,1
38, test,4, probe,24,2,3,3,2,0.4,0.6, right,2,0.3,0.4,0.6,0.7,0.2113319,0,71.01507568,1.6833439,11,52,3,3,1,6,0.5,1
38, test,4, no_probe,25,1,3,3,1,0.3,0.6, right,2,0.3,0.4,0.6,0.7,0.7071545,0, , ,11,52,1,3,1,6,0.5,1
38, test,5, no_probe,1,3,2,2,3,0.6,0.4, right,2,0.3,0.4,0.6,0.7,0.5379074,1, , ,1,53,1,2,1,6,0.5,1
38, test,5, probe,2,2,1,2,1,0.4,0.3, left,1,0.3,0.4,0.6,0.7,0.4374331,0,66.36520386,2.1332788,1,53,2,2,1,6,0.5,1
38, test,5, no_probe,3,4,3,4,3,0.7,0.6, left,1,0.3,0.4,0.6,0.7,1.1105079,0, , ,1,53,1,2,1,6,0.5,1
38, test,5, probe,4,4,3,4,3,0.7,0.6, left,1,0.3,0.4,0.6,0.7,0.38909,0,75.80654907,1.1999898,1,53,2,2,1,6,0.5,1
38, test,5, no_probe,5,2,4,4,2,0.4,0.7, right,2,0.3,0.4,0.6,0.7,0.5180545,1, , ,2,54,1,3,1,6,0.5,1
38, test,5, no_probe,6,1,2,1,2,0.3,0.4, left,1,0.3,0.4,0.6,0.7,0.3102446,1, , ,3,55,2,3,1,6,0.5,1
38, test,5, probe,7,2,4,4,2,0.4,0.7, right,2,0.3,0.4,0.6,0.7,0.4199634,1,77.68310547,1.2999965,4,56,3,3,1,6,0.5,1
38, test,5, no_probe,8,3,4,4,3,0.6,0.7, right,2,0.3,0.4,0.6,0.7,0.5384559,1, , ,5,57,1,3,1,6,0.5,1
38, test,5, no_probe,9,2,3,3,2,0.4,0.6, right,2,0.3,0.4,0.6,0.7,0.43416,0, , ,5,57,2,3,1,6,0.5,1
38, test,5, probe,10,3,1,1,3,0.6,0.3, right,2,0.3,0.4,0.6,0.7,0.5630428,1,79.5065918,2.2832915,6,58,3,3,1,6,0.5,1
38, test,5, no_probe,11,3,4,4,3,0.6,0.7, right,2,0.3,0.4,0.6,0.7,0.5404429,0, , ,6,58,1,2,1,6,0.5,1
38, test,5, probe,12,3,1,3,1,0.6,0.3, left,1,0.3,0.4,0.6,0.7,0.5087461,0,72.93582153,3.1332751,6,58,2,2,1,6,0.5,1
38, test,5, no_probe,13,1,4,4,1,0.3,0.7, right,2,0.3,0.4,0.6,0.7,1.3917437,0, , ,6,58,1,3,1,6,0.5,1
38, test,5, no_probe,14,3,1,3,1,0.6,0.3, left,1,0.3,0.4,0.6,0.7,0.3099071,0, , ,6,58,2,3,1,6,0.5,1
38, test,5, probe,15,4,1,4,1,0.7,0.3, left,1,0.3,0.4,0.6,0.7,0.9913359,1,75.27896118,1.7999718,7,59,3,3,1,6,0.5,1
38, test,5, no_probe,16,3,2,2,3,0.6,0.4, right,2,0.3,0.4,0.6,0.7,3.5082226,0, , ,7,59,1,3,1,6,0.5,1
38, test,5, no_probe,17,4,2,4,2,0.7,0.4, left,1,0.3,0.4,0.6,0.7,0.5578983,1, , ,8,60,2,3,1,6,0.5,1
38, test,5, probe,18,4,1,4,1,0.7,0.3, left,1,0.3,0.4,0.6,0.7,0.5403504,0,61.31906128,3.6332949,8,60,3,3,1,6,0.5,1
38, test,5, no_probe,19,1,3,3,1,0.3,0.6, right,2,0.3,0.4,0.6,0.7,0.7303251,0, , ,8,60,1,3,1,6,0.5,1
38, test,5, no_probe,20,2,3,3,2,0.4,0.6, right,2,0.3,0.4,0.6,0.7,0.5538901,0, , ,8,60,2,3,1,6,0.5,1
38, test,5, probe,21,4,2,2,4,0.7,0.4, right,2,0.3,0.4,0.6,0.7,1.0857339,1,60.89025879,2.2166586,9,61,3,3,1,6,0.5,1
38, test,5, no_probe,22,4,3,3,4,0.7,0.6, right,2,0.3,0.4,0.6,0.7,1.7251329,1, , ,10,62,1,2,1,6,0.5,1
38, test,5, probe,23,3,2,3,2,0.6,0.4, left,1,0.3,0.4,0.6,0.7,0.4307053,1,69.18313599,3.049978,11,63,2,2,1,6,0.5,1
38, test,5, no_probe,24,4,1,4,1,0.7,0.3, left,1,0.3,0.4,0.6,0.7,0.5424114,1, , ,12,64,1,3,1,6,0.5,1
38, test,5, no_probe,25,2,3,3,2,0.4,0.6, right,2,0.3,0.4,0.6,0.7,0.3588068,0, , ,12,64,2,3,1,6,0.5,1
38, test,6, no_probe,1,3,2,2,3,0.6,0.4, right,2,0.3,0.4,0.6,0.7,0.5580576,0, , ,0,64,1,3,1,6,0.5,1
38, test,6, no_probe,2,1,4,4,1,0.3,0.7, right,2,0.3,0.4,0.6,0.7,0.4273775,0, , ,0,64,2,3,1,6,0.5,1
38, test,6, probe,3,4,1,4,1,0.7,0.3, left,1,0.3,0.4,0.6,0.7,0.241625,1,63.30636597,2.7829869,1,65,3,3,1,6,0.5,1
38, test,6, no_probe,4,1,4,4,1,0.3,0.7, right,2,0.3,0.4,0.6,0.7,0.7712206,1, , ,2,66,1,3,1,6,0.5,1
38, test,6, no_probe,5,4,2,4,2,0.7,0.4, left,1,0.3,0.4,0.6,0.7,0.4822425,1, , ,3,67,2,3,1,6,0.5,1
38, test,6, probe,6,4,3,3,4,0.7,0.6, right,2,0.3,0.4,0.6,0.7,0.5527505,1,60.70516968,2.5499643,4,68,3,3,1,6,0.5,1
38, test,6, no_probe,7,4,3,4,3,0.7,0.6, left,1,0.3,0.4,0.6,0.7,0.4288401,0, , ,4,68,1,3,1,6,0.5,1
38, test,6, no_probe,8,1,4,4,1,0.3,0.7, right,2,0.3,0.4,0.6,0.7,1.033516,0, , ,4,68,2,3,1,6,0.5,1
38, test,6, probe,9,3,4,3,4,0.6,0.7, left,1,0.3,0.4,0.6,0.7,0.1645075,1,59.21502686,1.7999988,5,69,3,3,1,6,0.5,1
38, test,6, no_probe,10,2,4,4,2,0.4,0.7, right,2,0.3,0.4,0.6,0.7,0.4270887,1, , ,6,70,1,2,1,6,0.5,1
38, test,6, probe,11,1,2,1,2,0.3,0.4, left,1,0.3,0.4,0.6,0.7,0.4669386,1,61.38916016,1.8499746,7,71,2,2,1,6,0.5,1
38, test,6, no_probe,12,3,1,1,3,0.6,0.3, right,2,0.3,0.4,0.6,0.7,0.6137575,0, , ,7,71,1,2,1,6,0.5,1
38, test,6, probe,13,4,2,4,2,0.7,0.4, left,1,0.3,0.4,0.6,0.7,0.7671696,1,59.49191284,2.1499332,8,72,2,2,1,6,0.5,1
38, test,6, no_probe,14,3,4,4,3,0.6,0.7, right,2,0.3,0.4,0.6,0.7,1.0420946,0, , ,8,72,1,2,1,6,0.5,1
38, test,6, probe,15,4,2,4,2,0.7,0.4, left,1,0.3,0.4,0.6,0.7,1.6514385,0,64.16094971,1.233342,8,72,2,2,1,6,0.5,1
38, test,6, no_probe,16,4,1,1,4,0.7,0.3, right,2,0.3,0.4,0.6,0.7,1.6425558,1, , ,9,73,1,3,1,6,0.5,1
38, test,6, no_probe,17,2,3,3,2,0.4,0.6, right,2,0.3,0.4,0.6,0.7,0.93641,0, , ,9,73,2,3,1,6,0.5,1
38, test,6, probe,18,2,1,1,2,0.4,0.3, right,2,0.3,0.4,0.6,0.7,0.406708,1,73.78781128,1.4999549,10,74,3,3,1,6,0.5,1
38, test,6, no_probe,19,1,4,4,1,0.3,0.7, right,2,0.3,0.4,0.6,0.7,0.9953507,1, , ,11,75,1,3,1,6,0.5,1
38, test,6, no_probe,20,3,2,3,2,0.6,0.4, left,1,0.3,0.4,0.6,0.7,0.5808591,1, , ,12,76,2,3,1,6,0.5,1
38, test,6, probe,21,4,2,2,4,0.7,0.4, right,2,0.3,0.4,0.6,0.7,0.4864529,1,66.14639282,1.5333156,13,77,3,3,1,6,0.5,1
38, test,6, no_probe,22,4,2,2,4,0.7,0.4, right,2,0.3,0.4,0.6,0.7,0.7814232,1, , ,14,78,1,3,1,6,0.5,1
38, test,6, no_probe,23,1,4,4,1,0.3,0.7, right,2,0.3,0.4,0.6,0.7,0.5636256,1, , ,15,79,2,3,1,6,0.5,1
38, test,6, probe,24,1,4,4,1,0.3,0.7, right,2,0.3,0.4,0.6,0.7,0.4383655,0,65.64630127,2.0833125,15,79,3,3,1,6,0.5,1
38, test,6, no_probe,25,1,2,1,2,0.3,0.4, left,1,0.3,0.4,0.6,0.7,0.7182321,0, , ,15,79,1,3,1,6,0.5,1
38, test,7, no_probe,1,2,3,3,2,0.4,0.6, right,2,0.3,0.4,0.6,0.7,0.5365176,1, , ,1,80,1,2,1,6,0.5,1
38, test,7, probe,2,2,1,2,1,0.4,0.3, left,1,0.3,0.4,0.6,0.7,0.3397146,0,88.98831177,2.3999914,1,80,2,2,1,6,0.5,1
38, test,7, no_probe,3,4,3,3,4,0.7,0.6, right,2,0.3,0.4,0.6,0.7,0.7424515,1, , ,2,81,1,3,1,6,0.5,1
38, test,7, no_probe,4,2,1,2,1,0.4,0.3, left,1,0.3,0.4,0.6,0.7,0.6348747,1, , ,3,82,2,3,1,6,0.5,1
38, test,7, probe,5,4,3,3,4,0.7,0.6, right,2,0.3,0.4,0.6,0.7,0.3479749,1,82.66903687,1.6499422,4,83,3,3,1,6,0.5,1
38, test,7, no_probe,6,2,1,2,1,0.4,0.3, left,1,0.3,0.4,0.6,0.7,0.7386775,0, , ,4,83,1,2,1,6,0.5,1
38, test,7, probe,7,2,1,1,2,0.4,0.3, right,2,0.3,0.4,0.6,0.7,0.4632303,0,71.35635376,2.0666573,4,83,2,2,1,6,0.5,1
38, test,7, no_probe,8,3,1,3,1,0.6,0.3, left,1,0.3,0.4,0.6,0.7,0.5299423,1, , ,5,84,1,2,1,6,0.5,1
38, test,7, probe,9,1,2,2,1,0.3,0.4, right,2,0.3,0.4,0.6,0.7,0.3977072,0,77.88616943,1.1333267,5,84,2,2,1,6,0.5,1
38, test,7, no_probe,10,3,2,3,2,0.6,0.4, left,1,0.3,0.4,0.6,0.7,0.3091507,0, , ,5,84,1,2,1,6,0.5,1
38, test,7, probe,11,2,1,1,2,0.4,0.3, right,2,0.3,0.4,0.6,0.7,0.2899463,1,64.66467285,1.7833207,6,85,2,2,1,6,0.5,1
38, test,7, no_probe,12,4,1,1,4,0.7,0.3, right,2,0.3,0.4,0.6,0.7,0.5805388,1, , ,7,86,1,3,1,6,0.5,1
38, test,7, no_probe,13,4,1,4,1,0.7,0.3, left,1,0.3,0.4,0.6,0.7,0.3297015,1, , ,8,87,2,3,1,6,0.5,1
38, test,7, probe,14,4,2,2,4,0.7,0.4, right,2,0.3,0.4,0.6,0.7,0.2769817,1,72.23425293,3.1166182,9,88,3,3,1,6,0.5,1
38, test,7, no_probe,15,2,4,4,2,0.4,0.7, right,2,0.3,0.4,0.6,0.7,0.5341804,0, , ,9,88,1,3,1,6,0.5,1
38, test,7, no_probe,16,2,4,2,4,0.4,0.7, left,1,0.3,0.4,0.6,0.7,0.2100769,0, , ,9,88,2,3,1,6,0.5,1
38, test,7, probe,17,4,1,1,4,0.7,0.3, right,2,0.3,0.4,0.6,0.7,0.1511345,1,69.69039917,1.2499794,10,89,3,3,1,6,0.5,1
38, test,7, no_probe,18,4,2,2,4,0.7,0.4, right,2,0.3,0.4,0.6,0.7,2.0344218,1, , ,11,90,1,2,1,6,0.5,1
38, test,7, probe,19,4,3,3,4,0.7,0.6, right,2,0.3,0.4,0.6,0.7,0.4750356,0,75.8210144,1.1666564,11,90,2,2,1,6,0.5,1
38, test,7, no_probe,20,1,2,2,1,0.3,0.4, right,2,0.3,0.4,0.6,0.7,0.6933804,1, , ,12,91,1,3,1,6,0.5,1
38, test,7, no_probe,21,3,2,2,3,0.6,0.4, right,2,0.3,0.4,0.6,0.7,0.5163098,0, , ,12,91,2,3,1,6,0.5,1
38, test,7, probe,22,1,4,1,4,0.3,0.7, left,1,0.3,0.4,0.6,0.7,0.5316623,0,78.00811768,1.166631,12,91,3,3,1,6,0.5,1
38, test,7, no_probe,23,3,1,1,3,0.6,0.3, right,2,0.3,0.4,0.6,0.7,0.5648961,1, , ,13,92,1,2,1,6,0.5,1
38, test,7, probe,24,3,2,2,3,0.6,0.4, right,2,0.3,0.4,0.6,0.7,0.5070858,1,72.0949707,1.0332642,14,93,2,2,1,6,0.5,1
38, test,7, no_probe,25,3,4,4,3,0.6,0.7, right,2,0.3,0.4,0.6,0.7,0.573641,0, , ,14,93,1,2,1,6,0.5,1
38, test,8, no_probe,1,4,3,3,4,0.7,0.6, right,2,0.3,0.4,0.6,0.7,0.6122962,1, , ,1,94,1,3,1,6,0.5,1
38, test,8, no_probe,2,3,2,2,3,0.6,0.4, right,2,0.3,0.4,0.6,0.7,0.5403575,0, , ,1,94,2,3,1,6,0.5,1
38, test,8, probe,3,2,3,3,2,0.4,0.6, right,2,0.3,0.4,0.6,0.7,1.8847272,1,76.01309204,1.5163028,2,95,3,3,1,6,0.5,1
38, test,8, no_probe,4,2,4,4,2,0.4,0.7, right,2,0.3,0.4,0.6,0.7,1.1449736,0, , ,2,95,1,3,1,6,0.5,1
38, test,8, no_probe,5,1,3,3,1,0.3,0.6, right,2,0.3,0.4,0.6,0.7,0.7201851,0, , ,2,95,2,3,1,6,0.5,1
38, test,8, probe,6,4,1,1,4,0.7,0.3, right,2,0.3,0.4,0.6,0.7,0.7096689,0,82.68432617,1.4499469,2,95,3,3,1,6,0.5,1
38, test,8, no_probe,7,2,4,4,2,0.4,0.7, right,2,0.3,0.4,0.6,0.7,1.2033794,0, , ,2,95,1,3,1,6,0.5,1
38, test,8, no_probe,8,2,4,2,4,0.4,0.7, left,1,0.3,0.4,0.6,0.7,2.6669505,0, , ,2,95,2,3,1,6,0.5,1
38, test,8, probe,9,2,4,4,2,0.4,0.7, right,2,0.3,0.4,0.6,0.7,1.2150009,0,40.44534302,3.3166429,2,95,3,3,1,6,0.5,1
38, test,8, no_probe,10,1,2,2,1,0.3,0.4, right,2,0.3,0.4,0.6,0.7,1.366459,0, , ,2,95,1,2,1,6,0.5,1
38, test,8, probe,11,3,1,1,3,0.6,0.3, right,2,0.3,0.4,0.6,0.7,1.093389,1,54.97134399,2.3499902,3,96,2,2,1,6,0.5,1
38, test,8, no_probe,12,3,2,2,3,0.6,0.4, right,2,0.3,0.4,0.6,0.7,0.6843694,0, , ,3,96,1,3,1,6,0.5,1
38, test,8, no_probe,13,4,3,4,3,0.7,0.6, left,1,0.3,0.4,0.6,0.7,0.0020056,0, , ,3,96,2,3,1,6,0.5,1
38, test,8, probe,14,4,3,3,4,0.7,0.6, right,2,0.3,0.4,0.6,0.7,0.246043,0,45.13424683,2.449929,3,96,3,3,1,6,0.5,1
38, test,8, no_probe,15,2,4,4,2,0.4,0.7, right,2,0.3,0.4,0.6,0.7,0.6151345,1, , ,4,97,1,3,1,6,0.5,1
38, test,8, no_probe,16,1,3,3,1,0.3,0.6, right,2,0.3,0.4,0.6,0.7,0.3831627,0, , ,4,97,2,3,1,6,0.5,1
38, test,8, probe,17,2,1,1,2,0.4,0.3, right,2,0.3,0.4,0.6,0.7,0.3894016,0,47.2081604,2.2333027,4,97,3,3,1,6,0.5,1
38, test,8, no_probe,18,4,2,2,4,0.7,0.4, right,2,0.3,0.4,0.6,0.7,0.9415284,1, , ,5,98,1,2,1,6,0.5,1
38, test,8, probe,19,4,1,4,1,0.7,0.3, left,1,0.3,0.4,0.6,0.7,0.2971672,0,62.04071045,2.2665914,5,98,2,2,1,6,0.5,1
38, test,8, no_probe,20,4,2,4,2,0.7,0.4, left,1,0.3,0.4,0.6,0.7,1.1979436,0, , ,5,98,1,2,1,6,0.5,1
38, test,8, probe,21,2,4,4,2,0.4,0.7, right,2,0.3,0.4,0.6,0.7,0.4282729,0,61.10256958,1.5333212,5,98,2,2,1,6,0.5,1
38, test,8, no_probe,22,1,4,4,1,0.3,0.7, right,2,0.3,0.4,0.6,0.7,0.8221102,1, , ,6,99,1,2,1,6,0.5,1
38, test,8, probe,23,1,4,4,1,0.3,0.7, right,2,0.3,0.4,0.6,0.7,0.5655387,1,74.79660034,1.8833108,7,100,2,2,1,6,0.5,1
38, test,8, no_probe,24,4,2,2,4,0.7,0.4, right,2,0.3,0.4,0.6,0.7,0.5491791,1, , ,8,101,1,2,1,6,0.5,1
38, test,8, probe,25,4,1,4,1,0.7,0.3, left,1,0.3,0.4,0.6,0.7,0.4760334,1,77.0479126,1.9999644,9,102,2,2,1,6,0.5,1
