subject, block_type, block, thought probe, trial, chosen, unchosen, offer_left_image, offer_right_image, exp_value_chosen, exp_value_unchosen, choice_location, choice_key, exp_value1, exp_value2, exp_value3, exp_value4, RT, reward, vas, RT_vas, coins_per_block, coins_per_task, count_to_prob, ntrial_to_prob, ITI_duration,RT_deadline,choice_feedback_duration,outcome_duration
17,practice,1, no_probe,1,3,1,3,1,0.6,0.3, left,1,0.3,0.4,0.6,0.7,0.673583,1, , ,1,1,1,3,1,6,0.5,1
17,practice,1, no_probe,2,4,2,4,2,0.7,0.4, left,1,0.3,0.4,0.6,0.7,1.6644016,1, , ,2,2,2,3,1,6,0.5,1
17,practice,1, abort_prob,3,2,1,2,1,0.4,0.3, left,1,0.3,0.4,0.6,0.7,2.4671817,0, , ,2,2,3,3,1,6,0.5,1
17,practice,1, no_probe,4,1,2,2,1,0.3,0.4, right,2,0.3,0.4,0.6,0.7,1.6928548,1, , ,3,3,1,3,1,6,0.5,1
17,practice,1, no_probe,5,1,3,1,3,0.3,0.6, left,1,0.3,0.4,0.6,0.7,1.2421136,0, , ,3,3,2,3,1,6,0.5,1
17,practice,1, probe,6,4,1,4,1,0.7,0.3, left,1,0.3,0.4,0.6,0.7,1.4432905,1,67.24328613,3.3499481,4,4,3,3,1,6,0.5,1
17, test,1, no_probe,1,2,3,3,2,0.4,0.6, right,2,0.3,0.4,0.6,0.7,0.9788663,0, , ,0,4,1,2,1,6,0.5,1
17, test,1, probe,2,4,2,2,4,0.7,0.4, right,2,0.3,0.4,0.6,0.7,0.7688159,1,86.79907227,3.6999753,1,5,2,2,1,6,0.5,1
17, test,1, no_probe,3,4,2,4,2,0.7,0.4, left,1,0.3,0.4,0.6,0.7,1.1107927,1, , ,2,6,1,3,1,6,0.5,1
17, test,1, no_probe,4,4,1,4,1,0.7,0.3, left,1,0.3,0.4,0.6,0.7,0.6083622,0, , ,2,6,2,3,1,6,0.5,1
17, test,1, probe,5,3,4,3,4,0.6,0.7, left,1,0.3,0.4,0.6,0.7,1.056196,0,77.25939941,2.8833218,2,6,3,3,1,6,0.5,1
17, test,1, no_probe,6,2,3,3,2,0.4,0.6, right,2,0.3,0.4,0.6,0.7,1.2558606,1, , ,3,7,1,2,1,6,0.5,1
17, test,1, probe,7,2,1,1,2,0.4,0.3, right,2,0.3,0.4,0.6,0.7,1.3079711,0,65.0765686,5.5665775,3,7,2,2,1,6,0.5,1
17, test,1, no_probe,8,2,3,2,3,0.4,0.6, left,1,0.3,0.4,0.6,0.7,0.8323528,0, , ,3,7,1,3,1,6,0.5,1
17, test,1, no_probe,9,1,3,1,3,0.3,0.6, left,1,0.3,0.4,0.6,0.7,1.2207334,0, , ,3,7,2,3,1,6,0.5,1
17, test,1, probe,10,2,4,2,4,0.4,0.7, left,1,0.3,0.4,0.6,0.7,1.0374473,1,57.85174561,2.7332875,4,8,3,3,1,6,0.5,1
17, test,1, no_probe,11,2,3,3,2,0.4,0.6, right,2,0.3,0.4,0.6,0.7,1.1514612,0, , ,4,8,1,3,1,6,0.5,1
17, test,1, no_probe,12,1,3,1,3,0.3,0.6, left,1,0.3,0.4,0.6,0.7,1.7146442,0, , ,4,8,2,3,1,6,0.5,1
17, test,1, probe,13,3,2,2,3,0.6,0.4, right,2,0.3,0.4,0.6,0.7,0.6704101,1,57.09533691,4.1666433,5,9,3,3,1,6,0.5,1
17, test,1, no_probe,14,3,1,3,1,0.6,0.3, left,1,0.3,0.4,0.6,0.7,1.5850257,1, , ,6,10,1,3,1,6,0.5,1
17, test,1, no_probe,15,1,2,1,2,0.3,0.4, left,1,0.3,0.4,0.6,0.7,0.9839395,1, , ,7,11,2,3,1,6,0.5,1
17, test,1, probe,16,1,2,2,1,0.3,0.4, right,2,0.3,0.4,0.6,0.7,1.6185914,0,65.62857056,2.883228,7,11,3,3,1,6,0.5,1
17, test,1, no_probe,17,3,4,3,4,0.6,0.7, left,1,0.3,0.4,0.6,0.7,0.7341239,1, , ,8,12,1,2,1,6,0.5,1
17, test,1, probe,18,3,1,1,3,0.6,0.3, right,2,0.3,0.4,0.6,0.7,0.757269,1,63.95346069,2.2999738,9,13,2,2,1,6,0.5,1
17, test,1, no_probe,19,3,1,3,1,0.6,0.3, left,1,0.3,0.4,0.6,0.7,1.2592052,0, , ,9,13,1,2,1,6,0.5,1
17, test,1, probe,20,2,4,2,4,0.4,0.7, left,1,0.3,0.4,0.6,0.7,1.4108564,0,58.11105347,2.2499947,9,13,2,2,1,6,0.5,1
17, test,1, no_probe,21,3,4,3,4,0.6,0.7, left,1,0.3,0.4,0.6,0.7,1.31268,1, , ,10,14,1,3,1,6,0.5,1
17, test,1, no_probe,22,4,2,4,2,0.7,0.4, left,1,0.3,0.4,0.6,0.7,0.6340548,1, , ,11,15,2,3,1,6,0.5,1
17, test,1, probe,23,4,2,2,4,0.7,0.4, right,2,0.3,0.4,0.6,0.7,1.05892,1,68.30813599,5.2000281,12,16,3,3,1,6,0.5,1
17, test,1, no_probe,24,1,2,1,2,0.3,0.4, left,1,0.3,0.4,0.6,0.7,1.2257975,1, , ,13,17,1,2,1,6,0.5,1
17, test,1, probe,25,3,2,3,2,0.6,0.4, left,1,0.3,0.4,0.6,0.7,0.9182277,0,75.41772461,3.8165868,13,17,2,2,1,6,0.5,1
17, test,2, no_probe,1,3,2,2,3,0.6,0.4, right,2,0.3,0.4,0.6,0.7,1.4990489,1, , ,1,18,1,3,1,6,0.5,1
17, test,2, no_probe,2,2,4,4,2,0.4,0.7, right,2,0.3,0.4,0.6,0.7,1.9640193,0, , ,1,18,2,3,1,6,0.5,1
17, test,2, probe,3,3,1,1,3,0.6,0.3, right,2,0.3,0.4,0.6,0.7,2.4024328,1,91.4236145,9.6661986,2,19,3,3,1,6,0.5,1
17, test,2, no_probe,4,4,3,3,4,0.7,0.6, right,2,0.3,0.4,0.6,0.7,1.3634678,1, , ,3,20,1,3,1,6,0.5,1
17, test,2, no_probe,5,2,1,1,2,0.4,0.3, right,2,0.3,0.4,0.6,0.7,1.855573,0, , ,3,20,2,3,1,6,0.5,1
17, test,2, probe,6,1,2,2,1,0.3,0.4, right,2,0.3,0.4,0.6,0.7,1.3506942,0,73.17944336,2.4333153,3,20,3,3,1,6,0.5,1
17, test,2, no_probe,7,4,1,1,4,0.7,0.3, right,2,0.3,0.4,0.6,0.7,1.8862845,1, , ,4,21,1,2,1,6,0.5,1
17, test,2, probe,8,2,4,4,2,0.4,0.7, right,2,0.3,0.4,0.6,0.7,3.9204486,1,74.44277954,2.316655,5,22,2,2,1,6,0.5,1
17, test,2, no_probe,9,4,2,2,4,0.7,0.4, right,2,0.3,0.4,0.6,0.7,1.9556141,0, , ,5,22,1,2,1,6,0.5,1
17, test,2, probe,10,3,4,4,3,0.6,0.7, right,2,0.3,0.4,0.6,0.7,1.4347405,1,61.33374023,5.1833211,6,23,2,2,1,6,0.5,1
17, test,2, no_probe,11,3,4,3,4,0.6,0.7, left,1,0.3,0.4,0.6,0.7,1.2746543,1, , ,7,24,1,3,1,6,0.5,1
17, test,2, no_probe,12,3,1,3,1,0.6,0.3, left,1,0.3,0.4,0.6,0.7,1.0445321,0, , ,7,24,2,3,1,6,0.5,1
17, test,2, probe,13,2,3,3,2,0.4,0.6, right,2,0.3,0.4,0.6,0.7,1.1597744,0,67.01486206,1.8666253,7,24,3,3,1,6,0.5,1
17, test,2, no_probe,14,2,4,2,4,0.4,0.7, left,1,0.3,0.4,0.6,0.7,1.6770042,0, , ,7,24,1,3,1,6,0.5,1
17, test,2, no_probe,15,3,2,2,3,0.6,0.4, right,2,0.3,0.4,0.6,0.7,2.2031528,1, , ,8,25,2,3,1,6,0.5,1
17, test,2, probe,16,3,4,3,4,0.6,0.7, left,1,0.3,0.4,0.6,0.7,2.1233921,1,70.35250854,4.1999608,9,26,3,3,1,6,0.5,1
17, test,2, no_probe,17,3,1,3,1,0.6,0.3, left,1,0.3,0.4,0.6,0.7,1.131791,1, , ,10,27,1,3,1,6,0.5,1
17, test,2, no_probe,18,4,2,2,4,0.7,0.4, right,2,0.3,0.4,0.6,0.7,2.0084679,1, , ,11,28,2,3,1,6,0.5,1
17, test,2, probe,19,1,4,4,1,0.3,0.7, right,2,0.3,0.4,0.6,0.7,1.2015619,0,61.65023804,3.0832749,11,28,3,3,1,6,0.5,1
17, test,2, no_probe,20,2,3,3,2,0.4,0.6, right,2,0.3,0.4,0.6,0.7,2.185315,0, , ,11,28,1,3,1,6,0.5,1
17, test,2, no_probe,21,3,1,1,3,0.6,0.3, right,2,0.3,0.4,0.6,0.7,1.2527289,1, , ,12,29,2,3,1,6,0.5,1
17, test,2, probe,22,3,4,3,4,0.6,0.7, left,1,0.3,0.4,0.6,0.7,0.5314247,1,69.04354858,2.2499719,13,30,3,3,1,6,0.5,1
17, test,2, no_probe,23,4,1,4,1,0.7,0.3, left,1,0.3,0.4,0.6,0.7,1.2680523,1, , ,14,31,1,3,1,6,0.5,1
17, test,2, no_probe,24,2,1,2,1,0.4,0.3, left,1,0.3,0.4,0.6,0.7,1.5794496,0, , ,14,31,2,3,1,6,0.5,1
17, test,2, probe,25,2,4,2,4,0.4,0.7, left,1,0.3,0.4,0.6,0.7,1.3804597,0,67.50540161,2.0666086,14,31,3,3,1,6,0.5,1
17, test,3, no_probe,1,1,3,3,1,0.3,0.6, right,2,0.3,0.4,0.6,0.7,1.1868453,0, , ,0,31,1,2,1,6,0.5,1
17, test,3, probe,2,4,2,2,4,0.7,0.4, right,2,0.3,0.4,0.6,0.7,1.8699091,1,58.75161743,2.5832968,1,32,2,2,1,6,0.5,1
17, test,3, no_probe,3,3,1,1,3,0.6,0.3, right,2,0.3,0.4,0.6,0.7,1.4235425,0, , ,1,32,1,2,1,6,0.5,1
17, test,3, probe,4,2,1,2,1,0.4,0.3, left,1,0.3,0.4,0.6,0.7,2.4116933,0,60.92984009,5.0665845,1,32,2,2,1,6,0.5,1
17, test,3, no_probe,5,1,3,3,1,0.3,0.6, right,2,0.3,0.4,0.6,0.7,1.4055989,0, , ,1,32,1,2,1,6,0.5,1
17, test,3, probe,6,4,2,4,2,0.7,0.4, left,1,0.3,0.4,0.6,0.7,0.6788918,0,37.9524231,3.2165847,1,32,2,2,1,6,0.5,1
17, test,3, no_probe,7,3,4,4,3,0.6,0.7, right,2,0.3,0.4,0.6,0.7,1.4415562,1, , ,2,33,1,3,1,6,0.5,1
17, test,3, no_probe,8,2,3,3,2,0.4,0.6, right,2,0.3,0.4,0.6,0.7,1.0382152,1, , ,3,34,2,3,1,6,0.5,1
17, test,3, probe,9,2,1,2,1,0.4,0.3, left,1,0.3,0.4,0.6,0.7,0.6441021,0,58.92199707,4.566594,3,34,3,3,1,6,0.5,1
17, test,3, no_probe,10,4,1,4,1,0.7,0.3, left,1,0.3,0.4,0.6,0.7,1.8142293,1, , ,4,35,1,3,1,6,0.5,1
17, test,3, no_probe,11,2,3,3,2,0.4,0.6, right,2,0.3,0.4,0.6,0.7,1.1579829,1, , ,5,36,2,3,1,6,0.5,1
17, test,3, probe,12,4,2,2,4,0.7,0.4, right,2,0.3,0.4,0.6,0.7,1.7705105,1,59.53894043,7.5998821,6,37,3,3,1,6,0.5,1
17, test,3, no_probe,13,2,1,2,1,0.4,0.3, left,1,0.3,0.4,0.6,0.7,1.9780428,0, , ,6,37,1,2,1,6,0.5,1
17, test,3, probe,14,4,1,1,4,0.7,0.3, right,2,0.3,0.4,0.6,0.7,1.661482,0,42.7093811,1.8499678,6,37,2,2,1,6,0.5,1
17, test,3, no_probe,15,1,4,1,4,0.3,0.7, left,1,0.3,0.4,0.6,0.7,1.2758058,0, , ,6,37,1,2,1,6,0.5,1
17, test,3, probe,16,2,4,4,2,0.4,0.7, right,2,0.3,0.4,0.6,0.7,1.2797054,0,43.41165161,3.71663,6,37,2,2,1,6,0.5,1
17, test,3, no_probe,17,2,1,2,1,0.4,0.3, left,1,0.3,0.4,0.6,0.7,1.4636244,1, , ,7,38,1,3,1,6,0.5,1
17, test,3, no_probe,18,2,3,2,3,0.4,0.6, left,1,0.3,0.4,0.6,0.7,1.9012566,1, , ,8,39,2,3,1,6,0.5,1
17, test,3, probe,19,3,4,3,4,0.6,0.7, left,1,0.3,0.4,0.6,0.7,1.5188085,0,59.93377686,1.5666099,8,39,3,3,1,6,0.5,1
17, test,3, no_probe,20,4,1,4,1,0.7,0.3, left,1,0.3,0.4,0.6,0.7,2.6994346,0, , ,8,39,1,3,1,6,0.5,1
17, test,3, no_probe,21,2,3,2,3,0.4,0.6, left,1,0.3,0.4,0.6,0.7,1.3130274,1, , ,9,40,2,3,1,6,0.5,1
17, test,3, probe,22,3,1,1,3,0.6,0.3, right,2,0.3,0.4,0.6,0.7,1.4508068,0,39.00842285,3.6499442,9,40,3,3,1,6,0.5,1
17, test,3, no_probe,23,1,3,1,3,0.3,0.6, left,1,0.3,0.4,0.6,0.7,0.8377614,1, , ,10,41,1,3,1,6,0.5,1
17, test,3, no_probe,24,4,1,4,1,0.7,0.3, left,1,0.3,0.4,0.6,0.7,1.66976,1, , ,11,42,2,3,1,6,0.5,1
17, test,3, probe,25,1,2,2,1,0.3,0.4, right,2,0.3,0.4,0.6,0.7,1.7413155,0,42.20742798,3.6832566,11,42,3,3,1,6,0.5,1
17, test,4, no_probe,1,3,4,4,3,0.6,0.7, right,2,0.3,0.4,0.6,0.7,1.4932454,1, , ,1,43,1,2,1,6,0.5,1
17, test,4, probe,2,1,4,4,1,0.3,0.7, right,2,0.3,0.4,0.6,0.7,1.3718828,1,39.92840576,2.9999741,2,44,2,2,1,6,0.5,1
17, test,4, no_probe,3,3,4,3,4,0.6,0.7, left,1,0.3,0.4,0.6,0.7,0.9685958,1, , ,3,45,1,3,1,6,0.5,1
17, test,4, no_probe,4,2,3,2,3,0.4,0.6, left,1,0.3,0.4,0.6,0.7,1.7543839,1, , ,4,46,2,3,1,6,0.5,1
17, test,4, probe,5,2,1,1,2,0.4,0.3, right,2,0.3,0.4,0.6,0.7,0.9308929,1,54.68273926,1.8166651,5,47,3,3,1,6,0.5,1
17, test,4, no_probe,6,3,4,4,3,0.6,0.7, right,2,0.3,0.4,0.6,0.7,0.7962064,1, , ,6,48,1,2,1,6,0.5,1
17, test,4, probe,7,3,4,3,4,0.6,0.7, left,1,0.3,0.4,0.6,0.7,0.7298269,1,65.70483398,2.8165769,7,49,2,2,1,6,0.5,1
17, test,4, no_probe,8,2,1,2,1,0.4,0.3, left,1,0.3,0.4,0.6,0.7,0.6237052,1, , ,8,50,1,2,1,6,0.5,1
17, test,4, probe,9,2,1,2,1,0.4,0.3, left,1,0.3,0.4,0.6,0.7,0.5482135,1,65.71237183,2.0500048,9,51,2,2,1,6,0.5,1
17, test,4, no_probe,10,1,4,1,4,0.3,0.7, left,1,0.3,0.4,0.6,0.7,0.6400551,0, , ,9,51,1,2,1,6,0.5,1
17, test,4, probe,11,2,4,2,4,0.4,0.7, left,1,0.3,0.4,0.6,0.7,2.0813597,0,58.33154297,2.6499606,9,51,2,2,1,6,0.5,1
17, test,4, no_probe,12,2,1,1,2,0.4,0.3, right,2,0.3,0.4,0.6,0.7,1.499176,0, , ,9,51,1,2,1,6,0.5,1
17, test,4, probe,13,2,1,2,1,0.4,0.3, left,1,0.3,0.4,0.6,0.7,1.244993,0,62.71865845,6.6499678,9,51,2,2,1,6,0.5,1
17, test,4, no_probe,14,3,4,3,4,0.6,0.7, left,1,0.3,0.4,0.6,0.7,0.9688721,1, , ,10,52,1,3,1,6,0.5,1
17, test,4, no_probe,15,1,3,1,3,0.3,0.6, left,1,0.3,0.4,0.6,0.7,1.7554166,0, , ,10,52,2,3,1,6,0.5,1
17, test,4, probe,16,3,1,3,1,0.6,0.3, left,1,0.3,0.4,0.6,0.7,1.9909089,1,64.78509521,1.966628,11,53,3,3,1,6,0.5,1
17, test,4, no_probe,17,1,3,3,1,0.3,0.6, right,2,0.3,0.4,0.6,0.7,1.1293419,1, , ,12,54,1,3,1,6,0.5,1
17, test,4, no_probe,18,4,2,4,2,0.7,0.4, left,1,0.3,0.4,0.6,0.7,1.2126984,1, , ,13,55,2,3,1,6,0.5,1
17, test,4, probe,19,1,2,2,1,0.3,0.4, right,2,0.3,0.4,0.6,0.7,1.1493358,1,65.89096069,2.1665975,14,56,3,3,1,6,0.5,1
17, test,4, no_probe,20,4,2,2,4,0.7,0.4, right,2,0.3,0.4,0.6,0.7,1.0812488,1, , ,15,57,1,3,1,6,0.5,1
17, test,4, no_probe,21,3,2,3,2,0.6,0.4, left,1,0.3,0.4,0.6,0.7,1.5635175,1, , ,16,58,2,3,1,6,0.5,1
17, test,4, probe,22,4,1,4,1,0.7,0.3, left,1,0.3,0.4,0.6,0.7,1.2535155,1,56.84298706,2.9332946,17,59,3,3,1,6,0.5,1
17, test,4, no_probe,23,1,2,1,2,0.3,0.4, left,1,0.3,0.4,0.6,0.7,0.9759245,0, , ,17,59,1,2,1,6,0.5,1
17, test,4, probe,24,2,1,1,2,0.4,0.3, right,2,0.3,0.4,0.6,0.7,0.6386964,0,56.77792358,2.1999694,17,59,2,2,1,6,0.5,1
17, test,4, no_probe,25,1,3,1,3,0.3,0.6, left,1,0.3,0.4,0.6,0.7,2.3046111,0, , ,17,59,1,2,1,6,0.5,1
17, test,5, no_probe,1,1,3,3,1,0.3,0.6, right,2,0.3,0.4,0.6,0.7,0.8599576,0, , ,0,59,1,2,1,6,0.5,1
17, test,5, probe,2,4,1,4,1,0.7,0.3, left,1,0.3,0.4,0.6,0.7,1.7817145,1,74.63275146,2.7832349,1,60,2,2,1,6,0.5,1
17, test,5, no_probe,3,3,1,1,3,0.6,0.3, right,2,0.3,0.4,0.6,0.7,1.4407111,1, , ,2,61,1,2,1,6,0.5,1
17, test,5, probe,4,4,1,1,4,0.7,0.3, right,2,0.3,0.4,0.6,0.7,1.0791142,1,69.50241089,1.9499843,3,62,2,2,1,6,0.5,1
17, test,5, no_probe,5,2,3,2,3,0.4,0.6, left,1,0.3,0.4,0.6,0.7,1.3513234,1, , ,4,63,1,3,1,6,0.5,1
17, test,5, no_probe,6,2,4,4,2,0.4,0.7, right,2,0.3,0.4,0.6,0.7,2.5823747,0, , ,4,63,2,3,1,6,0.5,1
17, test,5, probe,7,3,1,3,1,0.6,0.3, left,1,0.3,0.4,0.6,0.7,2.7239423,0,59.14587402,5.0999123,4,63,3,3,1,6,0.5,1
17, test,5, no_probe,8,2,4,4,2,0.4,0.7, right,2,0.3,0.4,0.6,0.7,1.5352174,0, , ,4,63,1,3,1,6,0.5,1
17, test,5, no_probe,9,4,1,1,4,0.7,0.3, right,2,0.3,0.4,0.6,0.7,1.6590277,1, , ,5,64,2,3,1,6,0.5,1
17, test,5, probe,10,2,3,2,3,0.4,0.6, left,1,0.3,0.4,0.6,0.7,1.2666284,1,69.64932251,1.7499505,6,65,3,3,1,6,0.5,1
17, test,5, no_probe,11,2,4,4,2,0.4,0.7, right,2,0.3,0.4,0.6,0.7,2.0987146,0, , ,6,65,1,2,1,6,0.5,1
17, test,5, probe,12,2,1,2,1,0.4,0.3, left,1,0.3,0.4,0.6,0.7,1.2760713,1,69.12106323,2.54999,7,66,2,2,1,6,0.5,1
17, test,5, no_probe,13,4,2,4,2,0.7,0.4, left,1,0.3,0.4,0.6,0.7,1.3592263,1, , ,8,67,1,2,1,6,0.5,1
17, test,5, probe,14,2,3,3,2,0.4,0.6, right,2,0.3,0.4,0.6,0.7,1.3472962,0,55.61727905,1.5832973,8,67,2,2,1,6,0.5,1
17, test,5, no_probe,15,3,4,3,4,0.6,0.7, left,1,0.3,0.4,0.6,0.7,2.7245091,1, , ,9,68,1,3,1,6,0.5,1
17, test,5, no_probe,16,4,2,2,4,0.7,0.4, right,2,0.3,0.4,0.6,0.7,1.6735876,0, , ,9,68,2,3,1,6,0.5,1
17, test,5, probe,17,4,1,4,1,0.7,0.3, left,1,0.3,0.4,0.6,0.7,0.913959,1,70.38278198,1.5666169,10,69,3,3,1,6,0.5,1
17, test,5, no_probe,18,3,1,3,1,0.6,0.3, left,1,0.3,0.4,0.6,0.7,0.7743991,0, , ,10,69,1,3,1,6,0.5,1
17, test,5, no_probe,19,4,2,4,2,0.7,0.4, left,1,0.3,0.4,0.6,0.7,1.6761512,1, , ,11,70,2,3,1,6,0.5,1
17, test,5, probe,20,3,1,3,1,0.6,0.3, left,1,0.3,0.4,0.6,0.7,0.7515154,0,64.93109131,1.4833468,11,70,3,3,1,6,0.5,1
17, test,5, no_probe,21,3,4,3,4,0.6,0.7, left,1,0.3,0.4,0.6,0.7,1.6695393,1, , ,12,71,1,3,1,6,0.5,1
17, test,5, no_probe,22,3,4,4,3,0.6,0.7, right,2,0.3,0.4,0.6,0.7,0.8894342,1, , ,13,72,2,3,1,6,0.5,1
17, test,5, probe,23,2,3,3,2,0.4,0.6, right,2,0.3,0.4,0.6,0.7,1.1909547,0,57.35897827,2.4166174,13,72,3,3,1,6,0.5,1
17, test,5, no_probe,24,3,4,3,4,0.6,0.7, left,1,0.3,0.4,0.6,0.7,0.8393173,1, , ,14,73,1,2,1,6,0.5,1
17, test,5, probe,25,4,2,2,4,0.7,0.4, right,2,0.3,0.4,0.6,0.7,2.0979958,1,67.77813721,1.8999579,15,74,2,2,1,6,0.5,1
17, test,6, no_probe,1,2,1,1,2,0.4,0.3, right,2,0.3,0.4,0.6,0.7,1.5955346,0, , ,0,74,1,3,1,6,0.5,1
17, test,6, no_probe,2,3,1,3,1,0.6,0.3, left,1,0.3,0.4,0.6,0.7,1.3057014,0, , ,0,74,2,3,1,6,0.5,1
17, test,6, probe,3,4,3,4,3,0.7,0.6, left,1,0.3,0.4,0.6,0.7,1.9075868,0,56.07843018,2.3328912,0,74,3,3,1,6,0.5,1
17, test,6, no_probe,4,2,4,2,4,0.4,0.7, left,1,0.3,0.4,0.6,0.7,1.9503528,1, , ,1,75,1,2,1,6,0.5,1
17, test,6, probe,5,1,4,1,4,0.3,0.7, left,1,0.3,0.4,0.6,0.7,1.0659795,0,43.24554443,3.3833258,1,75,2,2,1,6,0.5,1
17, test,6, no_probe,6,1,2,1,2,0.3,0.4, left,1,0.3,0.4,0.6,0.7,1.6105357,0, , ,1,75,1,2,1,6,0.5,1
17, test,6, probe,7,3,4,3,4,0.6,0.7, left,1,0.3,0.4,0.6,0.7,1.7651064,1,59.57394409,3.8332823,2,76,2,2,1,6,0.5,1
17, test,6, no_probe,8,3,2,3,2,0.6,0.4, left,1,0.3,0.4,0.6,0.7,1.453168,1, , ,3,77,1,2,1,6,0.5,1
17, test,6, probe,9,2,4,2,4,0.4,0.7, left,1,0.3,0.4,0.6,0.7,1.8000221,0,60.33529663,1.9999891,3,77,2,2,1,6,0.5,1
17, test,6, no_probe,10,3,4,3,4,0.6,0.7, left,1,0.3,0.4,0.6,0.7,1.8131392,1, , ,4,78,1,3,1,6,0.5,1
17, test,6, no_probe,11,1,2,2,1,0.3,0.4, right,2,0.3,0.4,0.6,0.7,0.7092768,0, , ,4,78,2,3,1,6,0.5,1
17, test,6, probe,12,3,1,3,1,0.6,0.3, left,1,0.3,0.4,0.6,0.7,2.6942276,0,39.26745605,1.6666596,4,78,3,3,1,6,0.5,1
17, test,6, no_probe,13,2,4,4,2,0.4,0.7, right,2,0.3,0.4,0.6,0.7,1.7640222,1, , ,5,79,1,2,1,6,0.5,1
17, test,6, probe,14,3,1,3,1,0.6,0.3, left,1,0.3,0.4,0.6,0.7,1.4756652,1,60.5017395,6.7665685,6,80,2,2,1,6,0.5,1
17, test,6, no_probe,15,3,1,3,1,0.6,0.3, left,1,0.3,0.4,0.6,0.7,0.8739015,0, , ,6,80,1,3,1,6,0.5,1
17, test,6, no_probe,16,3,4,4,3,0.6,0.7, right,2,0.3,0.4,0.6,0.7,0.9692099,1, , ,7,81,2,3,1,6,0.5,1
17, test,6, probe,17,2,3,2,3,0.4,0.6, left,1,0.3,0.4,0.6,0.7,1.6986392,1,61.32540894,1.4166438,8,82,3,3,1,6,0.5,1
17, test,6, no_probe,18,3,1,3,1,0.6,0.3, left,1,0.3,0.4,0.6,0.7,1.1670831,1, , ,9,83,1,3,1,6,0.5,1
17, test,6, no_probe,19,3,1,1,3,0.6,0.3, right,2,0.3,0.4,0.6,0.7,0.8611155,0, , ,9,83,2,3,1,6,0.5,1
17, test,6, probe,20,4,2,2,4,0.7,0.4, right,2,0.3,0.4,0.6,0.7,2.4916877,1,69.3324585,2.6333074,10,84,3,3,1,6,0.5,1
17, test,6, no_probe,21,2,1,2,1,0.4,0.3, left,1,0.3,0.4,0.6,0.7,1.619531,1, , ,11,85,1,3,1,6,0.5,1
17, test,6, no_probe,22,3,4,3,4,0.6,0.7, left,1,0.3,0.4,0.6,0.7,1.5170174,1, , ,12,86,2,3,1,6,0.5,1
17, test,6, probe,23,1,4,4,1,0.3,0.7, right,2,0.3,0.4,0.6,0.7,2.365038,0,62.5788269,4.6332325,12,86,3,3,1,6,0.5,1
17, test,6, no_probe,24,2,4,2,4,0.4,0.7, left,1,0.3,0.4,0.6,0.7,1.7695279,0, , ,12,86,1,2,1,6,0.5,1
17, test,6, probe,25,1,2,1,2,0.3,0.4, left,1,0.3,0.4,0.6,0.7,2.70388,0,49.99703979,1.6166574,12,86,2,2,1,6,0.5,1
17, test,7, no_probe,1,4,1,4,1,0.7,0.3, left,1,0.3,0.4,0.6,0.7,1.3523508,0, , ,0,86,1,2,1,6,0.5,1
17, test,7, probe,2,2,3,2,3,0.4,0.6, left,1,0.3,0.4,0.6,0.7,2.2069229,1,69.73028564,3.5165998,1,87,2,2,1,6,0.5,1
17, test,7, no_probe,3,2,1,1,2,0.4,0.3, right,2,0.3,0.4,0.6,0.7,1.7776595,0, , ,1,87,1,3,1,6,0.5,1
17, test,7, no_probe,4,1,4,1,4,0.3,0.7, left,1,0.3,0.4,0.6,0.7,0.9836955,0, , ,1,87,2,3,1,6,0.5,1
17, test,7, probe,5,4,3,4,3,0.7,0.6, left,1,0.3,0.4,0.6,0.7,1.6950572,1,62.50799561,1.4499763,2,88,3,3,1,6,0.5,1
17, test,7, no_probe,6,1,4,4,1,0.3,0.7, right,2,0.3,0.4,0.6,0.7,1.9812026,0, , ,2,88,1,3,1,6,0.5,1
17, test,7, no_probe,7,4,2,4,2,0.7,0.4, left,1,0.3,0.4,0.6,0.7,1.4027614,1, , ,3,89,2,3,1,6,0.5,1
17, test,7, probe,8,3,1,3,1,0.6,0.3, left,1,0.3,0.4,0.6,0.7,1.8163493,0,65.35092163,5.0832265,3,89,3,3,1,6,0.5,1
17, test,7, no_probe,9,4,3,3,4,0.7,0.6, right,2,0.3,0.4,0.6,0.7,1.5522006,1, , ,4,90,1,3,1,6,0.5,1
17, test,7, no_probe,10,1,4,1,4,0.3,0.7, left,1,0.3,0.4,0.6,0.7,1.1826626,0, , ,4,90,2,3,1,6,0.5,1
17, test,7, probe,11,1,3,1,3,0.3,0.6, left,1,0.3,0.4,0.6,0.7,2.0369922,1,59.762146,1.4666275,5,91,3,3,1,6,0.5,1
17, test,7, no_probe,12,4,3,3,4,0.7,0.6, right,2,0.3,0.4,0.6,0.7,1.6927311,1, , ,6,92,1,3,1,6,0.5,1
17, test,7, no_probe,13,2,3,2,3,0.4,0.6, left,1,0.3,0.4,0.6,0.7,1.203061,0, , ,6,92,2,3,1,6,0.5,1
17, test,7, probe,14,2,4,4,2,0.4,0.7, right,2,0.3,0.4,0.6,0.7,0.9811947,0,65.33859253,1.599957,6,92,3,3,1,6,0.5,1
17, test,7, no_probe,15,2,4,4,2,0.4,0.7, right,2,0.3,0.4,0.6,0.7,1.4901887,0, , ,6,92,1,3,1,6,0.5,1
17, test,7, no_probe,16,2,3,3,2,0.4,0.6, right,2,0.3,0.4,0.6,0.7,0.9310465,1, , ,7,93,2,3,1,6,0.5,1
17, test,7, probe,17,2,3,2,3,0.4,0.6, left,1,0.3,0.4,0.6,0.7,0.7869562,1,59.71694946,1.5166444,8,94,3,3,1,6,0.5,1
17, test,7, no_probe,18,4,3,4,3,0.7,0.6, left,1,0.3,0.4,0.6,0.7,0.4754745,1, , ,9,95,1,3,1,6,0.5,1
17, test,7, no_probe,19,4,3,4,3,0.7,0.6, left,1,0.3,0.4,0.6,0.7,0.8942318,1, , ,10,96,2,3,1,6,0.5,1
17, test,7, probe,20,3,1,3,1,0.6,0.3, left,1,0.3,0.4,0.6,0.7,1.6878038,1,66.99996948,1.1666754,11,97,3,3,1,6,0.5,1
17, test,7, no_probe,21,4,2,4,2,0.7,0.4, left,1,0.3,0.4,0.6,0.7,1.0307758,1, , ,12,98,1,3,1,6,0.5,1
17, test,7, no_probe,22,4,2,4,2,0.7,0.4, left,1,0.3,0.4,0.6,0.7,0.6785148,1, , ,13,99,2,3,1,6,0.5,1
17, test,7, probe,23,2,1,2,1,0.4,0.3, left,1,0.3,0.4,0.6,0.7,1.2852485,0,78.70147705,2.2333046,13,99,3,3,1,6,0.5,1
17, test,7, no_probe,24,1,2,1,2,0.3,0.4, left,1,0.3,0.4,0.6,0.7,1.275238,0, , ,13,99,1,3,1,6,0.5,1
17, test,7, no_probe,25,2,3,3,2,0.4,0.6, right,2,0.3,0.4,0.6,0.7,0.8237646,0, , ,13,99,2,3,1,6,0.5,1
17, test,8, no_probe,1,4,2,4,2,0.7,0.4, left,1,0.3,0.4,0.6,0.7,0.9185874,1, , ,1,100,1,2,1,6,0.5,1
17, test,8, probe,2,1,4,4,1,0.3,0.7, right,2,0.3,0.4,0.6,0.7,0.939932,0,68.27032471,4.0999603,1,100,2,2,1,6,0.5,1
17, test,8, no_probe,3,3,4,3,4,0.6,0.7, left,1,0.3,0.4,0.6,0.7,1.2651435,1, , ,2,101,1,2,1,6,0.5,1
17, test,8, probe,4,4,2,2,4,0.7,0.4, right,2,0.3,0.4,0.6,0.7,1.7047055,1,67.27008057,2.7499285,3,102,2,2,1,6,0.5,1
17, test,8, no_probe,5,1,3,1,3,0.3,0.6, left,1,0.3,0.4,0.6,0.7,2.7477597,0, , ,3,102,1,2,1,6,0.5,1
17, test,8, probe,6,1,2,2,1,0.3,0.4, right,2,0.3,0.4,0.6,0.7,2.4861235,0,67.78039551,1.5333063,3,102,2,2,1,6,0.5,1
17, test,8, no_probe,7,4,2,4,2,0.7,0.4, left,1,0.3,0.4,0.6,0.7,1.0135051,1, , ,4,103,1,3,1,6,0.5,1
17, test,8, no_probe,8,3,4,4,3,0.6,0.7, right,2,0.3,0.4,0.6,0.7,0.7736536,0, , ,4,103,2,3,1,6,0.5,1
17, test,8, probe,9,4,2,2,4,0.7,0.4, right,2,0.3,0.4,0.6,0.7,1.0524536,1,55.92929077,1.9166668,5,104,3,3,1,6,0.5,1
17, test,8, no_probe,10,1,4,1,4,0.3,0.7, left,1,0.3,0.4,0.6,0.7,1.2944321,0, , ,5,104,1,3,1,6,0.5,1
17, test,8, no_probe,11,3,2,2,3,0.6,0.4, right,2,0.3,0.4,0.6,0.7,0.7308958,1, , ,6,105,2,3,1,6,0.5,1
17, test,8, probe,12,4,1,4,1,0.7,0.3, left,1,0.3,0.4,0.6,0.7,1.2843684,0,66.80715942,2.0333114,6,105,3,3,1,6,0.5,1
17, test,8, no_probe,13,3,1,3,1,0.6,0.3, left,1,0.3,0.4,0.6,0.7,1.2474548,1, , ,7,106,1,3,1,6,0.5,1
17, test,8, no_probe,14,3,4,4,3,0.6,0.7, right,2,0.3,0.4,0.6,0.7,0.9538941,0, , ,7,106,2,3,1,6,0.5,1
17, test,8, probe,15,3,1,1,3,0.6,0.3, right,2,0.3,0.4,0.6,0.7,1.0654763,1,64.75567627,2.2832874,8,107,3,3,1,6,0.5,1
17, test,8, no_probe,16,4,2,2,4,0.7,0.4, right,2,0.3,0.4,0.6,0.7,0.7758225,1, , ,9,108,1,3,1,6,0.5,1
17, test,8, no_probe,17,1,2,2,1,0.3,0.4, right,2,0.3,0.4,0.6,0.7,1.9388133,0, , ,9,108,2,3,1,6,0.5,1
17, test,8, probe,18,4,1,1,4,0.7,0.3, right,2,0.3,0.4,0.6,0.7,1.1831655,1,61.43078613,1.1999884,10,109,3,3,1,6,0.5,1
17, test,8, no_probe,19,2,1,1,2,0.4,0.3, right,2,0.3,0.4,0.6,0.7,1.6152925,0, , ,10,109,1,3,1,6,0.5,1
17, test,8, no_probe,20,3,1,3,1,0.6,0.3, left,1,0.3,0.4,0.6,0.7,0.9170532,1, , ,11,110,2,3,1,6,0.5,1
17, test,8, probe,21,4,1,4,1,0.7,0.3, left,1,0.3,0.4,0.6,0.7,0.5895344,0,58.11245728,1.1500373,11,110,3,3,1,6,0.5,1
17, test,8, no_probe,22,3,4,3,4,0.6,0.7, left,1,0.3,0.4,0.6,0.7,1.2882826,1, , ,12,111,1,2,1,6,0.5,1
17, test,8, probe,23,3,2,2,3,0.6,0.4, right,2,0.3,0.4,0.6,0.7,0.6090575,0,65.72210693,1.3832214,12,111,2,2,1,6,0.5,1
17, test,8, no_probe,24,3,4,3,4,0.6,0.7, left,1,0.3,0.4,0.6,0.7,0.6697225,0, , ,12,111,1,2,1,6,0.5,1
17, test,8, probe,25,4,1,1,4,0.7,0.3, right,2,0.3,0.4,0.6,0.7,0.660435,0,56.36520386,1.233328,12,111,2,2,1,6,0.5,1
