subject, block_type, block, thought probe, trial, chosen, unchosen, offer_left_image, offer_right_image, exp_value_chosen, exp_value_unchosen, choice_location, choice_key, exp_value1, exp_value2, exp_value3, exp_value4, RT, reward, vas, RT_vas, coins_per_block, coins_per_task, count_to_prob, ntrial_to_prob, ITI_duration,RT_deadline,choice_feedback_duration,outcome_duration
55,practice,1, no_probe,1,4,2,4,2,0.7,0.4, left,1,0.3,0.4,0.6,0.7,1.650401,0, , ,0,0,1,2,1,6,0.5,1
55,practice,1, probe,2,3,4,3,4,0.6,0.7, left,1,0.3,0.4,0.6,0.7,1.1218075,1,99.99575806,5.8332872,1,1,2,2,1,6,0.5,1
55,practice,1, no_probe,3,1,2,1,2,0.3,0.4, left,1,0.3,0.4,0.6,0.7,2.4157233,1, , ,2,2,1,2,1,6,0.5,1
55,practice,1, probe,4,2,4,4,2,0.4,0.7, right,2,0.3,0.4,0.6,0.7,1.1693956,0,96.9881897,5.1499325,2,2,2,2,1,6,0.5,1
55,practice,1, no_probe,5,3,2,2,3,0.6,0.4, right,2,0.3,0.4,0.6,0.7,2.4481233,0, , ,2,2,1,2,1,6,0.5,1
55,practice,1, probe,6,1,4,4,1,0.3,0.7, right,2,0.3,0.4,0.6,0.7,1.8958106,0,95.76925659,3.4832447,2,2,2,2,1,6,0.5,1
55, test,1, no_probe,1,2,1,2,1,0.4,0.3, left,1,0.3,0.4,0.6,0.7,1.8732332,0, , ,0,2,1,3,1,6,0.5,1
55, test,1, no_probe,2,1,4,1,4,0.3,0.7, left,1,0.3,0.4,0.6,0.7,2.5085919,1, , ,1,3,2,3,1,6,0.5,1
55, test,1, probe,3,1,2,2,1,0.3,0.4, right,2,0.3,0.4,0.6,0.7,1.541858,1,99.99951172,2.2495542,2,4,3,3,1,6,0.5,1
55, test,1, no_probe,4,3,4,3,4,0.6,0.7, left,1,0.3,0.4,0.6,0.7,2.2213362,1, , ,3,5,1,3,1,6,0.5,1
55, test,1, no_probe,5,2,4,2,4,0.4,0.7, left,1,0.3,0.4,0.6,0.7,2.5823412,0, , ,3,5,2,3,1,6,0.5,1
55, test,1, probe,6,3,1,3,1,0.6,0.3, left,1,0.3,0.4,0.6,0.7,2.1778863,1,96.57409668,2.1499779,4,6,3,3,1,6,0.5,1
55, test,1, no_probe,7,1,3,3,1,0.3,0.6, right,2,0.3,0.4,0.6,0.7,2.2526305,0, , ,4,6,1,3,1,6,0.5,1
55, test,1, no_probe,8,4,1,4,1,0.7,0.3, left,1,0.3,0.4,0.6,0.7,1.2954455,1, , ,5,7,2,3,1,6,0.5,1
55, test,1, probe,9,3,1,1,3,0.6,0.3, right,2,0.3,0.4,0.6,0.7,1.2481215,1,96.84936523,3.9166059,6,8,3,3,1,6,0.5,1
55, test,1, no_probe,10,4,1,4,1,0.7,0.3, left,1,0.3,0.4,0.6,0.7,2.4780478,1, , ,7,9,1,2,1,6,0.5,1
55, test,1, probe,11,4,3,3,4,0.7,0.6, right,2,0.3,0.4,0.6,0.7,2.5762246,1,95.08325195,3.6666176,8,10,2,2,1,6,0.5,1
55, test,1, no_probe,12,4,2,2,4,0.7,0.4, right,2,0.3,0.4,0.6,0.7,2.7874309,0, , ,8,10,1,2,1,6,0.5,1
55, test,1, probe,13,1,2,1,2,0.3,0.4, left,1,0.3,0.4,0.6,0.7,2.0883828,0,93.04391479,2.9832078,8,10,2,2,1,6,0.5,1
55, test,1, no_probe,14,3,2,3,2,0.6,0.4, left,1,0.3,0.4,0.6,0.7,1.9133896,1, , ,9,11,1,3,1,6,0.5,1
55, test,1, no_probe,15,3,2,2,3,0.6,0.4, right,2,0.3,0.4,0.6,0.7,0.6382346,0, , ,9,11,2,3,1,6,0.5,1
55, test,1, probe,16,4,2,4,2,0.7,0.4, left,1,0.3,0.4,0.6,0.7,2.0035407,1,89.26742554,4.7832242,10,12,3,3,1,6,0.5,1
55, test,1, no_probe,17,3,1,1,3,0.6,0.3, right,2,0.3,0.4,0.6,0.7,4.7522214,1, , ,11,13,1,3,1,6,0.5,1
55, test,1, no_probe,18,3,2,3,2,0.6,0.4, left,1,0.3,0.4,0.6,0.7,1.4909095,1, , ,12,14,2,3,1,6,0.5,1
55, test,1, probe,19,1,2,2,1,0.3,0.4, right,2,0.3,0.4,0.6,0.7,1.8255587,0,90.4944458,2.4999708,12,14,3,3,1,6,0.5,1
55, test,1, no_probe,20,2,4,4,2,0.4,0.7, right,2,0.3,0.4,0.6,0.7,2.4647152,1, , ,13,15,1,2,1,6,0.5,1
55, test,1, probe,21,4,1,4,1,0.7,0.3, left,1,0.3,0.4,0.6,0.7,3.0554835,1,93.58520508,5.3832608,14,16,2,2,1,6,0.5,1
55, test,1, no_probe,22,3,1,1,3,0.6,0.3, right,2,0.3,0.4,0.6,0.7,4.1986807,1, , ,15,17,1,2,1,6,0.5,1
55, test,1, probe,23,3,1,1,3,0.6,0.3, right,2,0.3,0.4,0.6,0.7,1.0884005,1,90.73855591,4.0999068,16,18,2,2,1,6,0.5,1
55, test,1, no_probe,24,1,2,1,2,0.3,0.4, left,1,0.3,0.4,0.6,0.7,5.0009782,0, , ,16,18,1,2,1,6,0.5,1
55, test,1, probe,25,3,4,3,4,0.6,0.7, left,1,0.3,0.4,0.6,0.7,2.3296416,1,92.88931274,7.0166149,17,19,2,2,1,6,0.5,1
55, test,2, no_probe,1,3,2,3,2,0.6,0.4, left,1,0.3,0.4,0.6,0.7,1.9998303,0, , ,0,19,1,2,1,6,0.5,1
55, test,2, probe,2,4,1,4,1,0.7,0.3, left,1,0.3,0.4,0.6,0.7,2.8654997,0,94.80874634,2.2333314,0,19,2,2,1,6,0.5,1
55, test,2, abort_trial,3,,,,,,,,,,,,,,,,,,,,,,,,
55, test,2, no_probe,4,1,3,1,3,0.3,0.6, left,1,0.3,0.4,0.6,0.7,2.0443553,0, , ,0,19,1,2,1,6,0.5,1
55, test,2, probe,5,4,1,1,4,0.7,0.3, right,2,0.3,0.4,0.6,0.7,0.938025,1,91.02185059,2.3833307,1,20,2,2,1,6,0.5,1
55, test,2, no_probe,6,4,2,2,4,0.7,0.4, right,2,0.3,0.4,0.6,0.7,1.498568,0, , ,1,20,1,2,1,6,0.5,1
55, test,2, probe,7,2,1,1,2,0.4,0.3, right,2,0.3,0.4,0.6,0.7,1.6960828,1,98.072052,2.6499546,2,21,2,2,1,6,0.5,1
55, test,2, no_probe,8,2,1,1,2,0.4,0.3, right,2,0.3,0.4,0.6,0.7,1.6657013,0, , ,2,21,1,2,1,6,0.5,1
55, test,2, probe,9,3,4,3,4,0.6,0.7, left,1,0.3,0.4,0.6,0.7,1.537151,0,93.05657959,3.8500192,2,21,2,2,1,6,0.5,1
55, test,2, no_probe,10,1,2,2,1,0.3,0.4, right,2,0.3,0.4,0.6,0.7,1.7128563,0, , ,2,21,1,2,1,6,0.5,1
55, test,2, probe,11,3,4,3,4,0.6,0.7, left,1,0.3,0.4,0.6,0.7,1.1342269,0,84.81390381,2.3999771,2,21,2,2,1,6,0.5,1
55, test,2, no_probe,12,3,2,2,3,0.6,0.4, right,2,0.3,0.4,0.6,0.7,0.5730148,1, , ,3,22,1,2,1,6,0.5,1
55, test,2, probe,13,2,4,4,2,0.4,0.7, right,2,0.3,0.4,0.6,0.7,0.9840719,0,83.17755127,3.9333075,3,22,2,2,1,6,0.5,1
55, test,2, no_probe,14,1,2,1,2,0.3,0.4, left,1,0.3,0.4,0.6,0.7,0.8236886,0, , ,3,22,1,3,1,6,0.5,1
55, test,2, no_probe,15,1,2,1,2,0.3,0.4, left,1,0.3,0.4,0.6,0.7,0.7609053,0, , ,3,22,2,3,1,6,0.5,1
55, test,2, probe,16,4,3,3,4,0.7,0.6, right,2,0.3,0.4,0.6,0.7,0.7150869,1,87.62597656,3.5832483,4,23,3,3,1,6,0.5,1
55, test,2, no_probe,17,2,3,2,3,0.4,0.6, left,1,0.3,0.4,0.6,0.7,2.4147618,0, , ,4,23,1,3,1,6,0.5,1
55, test,2, no_probe,18,4,1,1,4,0.7,0.3, right,2,0.3,0.4,0.6,0.7,1.7238538,1, , ,5,24,2,3,1,6,0.5,1
55, test,2, probe,19,3,4,3,4,0.6,0.7, left,1,0.3,0.4,0.6,0.7,1.7448495,1,87.246521,7.8332639,6,25,3,3,1,6,0.5,1
55, test,2, no_probe,20,4,1,1,4,0.7,0.3, right,2,0.3,0.4,0.6,0.7,2.0652887,0, , ,6,25,1,3,1,6,0.5,1
55, test,2, no_probe,21,2,3,3,2,0.4,0.6, right,2,0.3,0.4,0.6,0.7,1.4679401,0, , ,6,25,2,3,1,6,0.5,1
55, test,2, probe,22,3,2,3,2,0.6,0.4, left,1,0.3,0.4,0.6,0.7,1.5545869,0,87.69467163,3.2999243,6,25,3,3,1,6,0.5,1
55, test,2, no_probe,23,4,3,3,4,0.7,0.6, right,2,0.3,0.4,0.6,0.7,1.8261973,1, , ,7,26,1,3,1,6,0.5,1
55, test,2, no_probe,24,1,2,1,2,0.3,0.4, left,1,0.3,0.4,0.6,0.7,2.7369391,1, , ,8,27,2,3,1,6,0.5,1
55, test,2, probe,25,4,1,4,1,0.7,0.3, left,1,0.3,0.4,0.6,0.7,1.570086,0,86.66427612,5.783267,8,27,3,3,1,6,0.5,1
55, test,3, no_probe,1,3,4,4,3,0.6,0.7, right,2,0.3,0.4,0.6,0.7,1.3281321,1, , ,1,28,1,2,1,6,0.5,1
55, test,3, probe,2,3,4,4,3,0.6,0.7, right,2,0.3,0.4,0.6,0.7,1.359436,1,98.78210449,2.833286,2,29,2,2,1,6,0.5,1
55, test,3, no_probe,3,3,1,1,3,0.6,0.3, right,2,0.3,0.4,0.6,0.7,1.500101,1, , ,3,30,1,2,1,6,0.5,1
55, test,3, probe,4,3,2,2,3,0.6,0.4, right,2,0.3,0.4,0.6,0.7,1.2905613,1,96.65267944,3.1999492,4,31,2,2,1,6,0.5,1
55, test,3, no_probe,5,1,4,1,4,0.3,0.7, left,1,0.3,0.4,0.6,0.7,0.7148208,0, , ,4,31,1,3,1,6,0.5,1
55, test,3, no_probe,6,3,2,3,2,0.6,0.4, left,1,0.3,0.4,0.6,0.7,2.4718105,0, , ,4,31,2,3,1,6,0.5,1
55, test,3, probe,7,1,2,2,1,0.3,0.4, right,2,0.3,0.4,0.6,0.7,2.3855111,0,90.84030151,4.1165993,4,31,3,3,1,6,0.5,1
55, test,3, no_probe,8,3,2,3,2,0.6,0.4, left,1,0.3,0.4,0.6,0.7,1.0495373,1, , ,5,32,1,3,1,6,0.5,1
55, test,3, no_probe,9,3,4,4,3,0.6,0.7, right,2,0.3,0.4,0.6,0.7,1.0571854,1, , ,6,33,2,3,1,6,0.5,1
55, test,3, probe,10,2,3,3,2,0.4,0.6, right,2,0.3,0.4,0.6,0.7,1.7576694,1,87.21792603,8.8499264,7,34,3,3,1,6,0.5,1
55, test,3, no_probe,11,4,1,4,1,0.7,0.3, left,1,0.3,0.4,0.6,0.7,1.8022762,1, , ,8,35,1,3,1,6,0.5,1
55, test,3, no_probe,12,2,4,4,2,0.4,0.7, right,2,0.3,0.4,0.6,0.7,2.3865112,1, , ,9,36,2,3,1,6,0.5,1
55, test,3, probe,13,2,1,1,2,0.4,0.3, right,2,0.3,0.4,0.6,0.7,1.4889194,0,91.29693604,2.7499688,9,36,3,3,1,6,0.5,1
55, test,3, no_probe,14,3,1,1,3,0.6,0.3, right,2,0.3,0.4,0.6,0.7,1.4669198,1, , ,10,37,1,2,1,6,0.5,1
55, test,3, probe,15,1,2,1,2,0.3,0.4, left,1,0.3,0.4,0.6,0.7,1.626831,0,87.84460449,5.8832672,10,37,2,2,1,6,0.5,1
55, test,3, no_probe,16,3,1,1,3,0.6,0.3, right,2,0.3,0.4,0.6,0.7,0.8260159,0, , ,10,37,1,3,1,6,0.5,1
55, test,3, no_probe,17,2,1,2,1,0.4,0.3, left,1,0.3,0.4,0.6,0.7,2.2236195,0, , ,10,37,2,3,1,6,0.5,1
55, test,3, probe,18,1,3,3,1,0.3,0.6, right,2,0.3,0.4,0.6,0.7,1.819276,0,81.43777466,3.2498998,10,37,3,3,1,6,0.5,1
55, test,3, no_probe,19,1,2,1,2,0.3,0.4, left,1,0.3,0.4,0.6,0.7,2.7293367,1, , ,11,38,1,2,1,6,0.5,1
55, test,3, probe,20,3,4,3,4,0.6,0.7, left,1,0.3,0.4,0.6,0.7,1.6786322,0,79.98083496,4.6666018,11,38,2,2,1,6,0.5,1
55, test,3, no_probe,21,3,2,2,3,0.6,0.4, right,2,0.3,0.4,0.6,0.7,0.7478672,0, , ,11,38,1,2,1,6,0.5,1
55, test,3, probe,22,4,1,4,1,0.7,0.3, left,1,0.3,0.4,0.6,0.7,1.3632609,1,82.74798584,4.6499889,12,39,2,2,1,6,0.5,1
55, test,3, no_probe,23,3,4,3,4,0.6,0.7, left,1,0.3,0.4,0.6,0.7,1.6741624,1, , ,13,40,1,3,1,6,0.5,1
55, test,3, no_probe,24,1,2,1,2,0.3,0.4, left,1,0.3,0.4,0.6,0.7,2.1822627,0, , ,13,40,2,3,1,6,0.5,1
55, test,3, probe,25,1,4,4,1,0.3,0.7, right,2,0.3,0.4,0.6,0.7,1.5676219,1,84.34466553,3.0499182,14,41,3,3,1,6,0.5,1
55, test,4, no_probe,1,3,2,2,3,0.6,0.4, right,2,0.3,0.4,0.6,0.7,0.8838237,1, , ,1,42,1,2,1,6,0.5,1
55, test,4, probe,2,1,4,1,4,0.3,0.7, left,1,0.3,0.4,0.6,0.7,1.2813159,1,93.43859863,3.1666578,2,43,2,2,1,6,0.5,1
55, test,4, no_probe,3,3,2,2,3,0.6,0.4, right,2,0.3,0.4,0.6,0.7,0.8640381,0, , ,2,43,1,3,1,6,0.5,1
55, test,4, no_probe,4,2,3,2,3,0.4,0.6, left,1,0.3,0.4,0.6,0.7,0.5425954,0, , ,2,43,2,3,1,6,0.5,1
55, test,4, probe,5,2,4,4,2,0.4,0.7, right,2,0.3,0.4,0.6,0.7,2.2505776,1,87.34170532,4.416606,3,44,3,3,1,6,0.5,1
55, test,4, no_probe,6,2,1,2,1,0.4,0.3, left,1,0.3,0.4,0.6,0.7,1.7469158,0, , ,3,44,1,2,1,6,0.5,1
55, test,4, probe,7,1,4,1,4,0.3,0.7, left,1,0.3,0.4,0.6,0.7,1.2959336,0,82.77575684,2.733318,3,44,2,2,1,6,0.5,1
55, test,4, no_probe,8,2,3,3,2,0.4,0.6, right,2,0.3,0.4,0.6,0.7,0.8262486,1, , ,4,45,1,2,1,6,0.5,1
55, test,4, probe,9,3,4,3,4,0.6,0.7, left,1,0.3,0.4,0.6,0.7,0.8134774,0,77.95477295,5.2666055,4,45,2,2,1,6,0.5,1
55, test,4, no_probe,10,3,4,4,3,0.6,0.7, right,2,0.3,0.4,0.6,0.7,1.2152029,1, , ,5,46,1,3,1,6,0.5,1
55, test,4, no_probe,11,1,4,4,1,0.3,0.7, right,2,0.3,0.4,0.6,0.7,1.9470583,1, , ,6,47,2,3,1,6,0.5,1
55, test,4, probe,12,2,1,2,1,0.4,0.3, left,1,0.3,0.4,0.6,0.7,1.4200016,1,82.29678345,4.81663,7,48,3,3,1,6,0.5,1
55, test,4, no_probe,13,3,1,1,3,0.6,0.3, right,2,0.3,0.4,0.6,0.7,1.4186023,0, , ,7,48,1,2,1,6,0.5,1
55, test,4, probe,14,4,3,4,3,0.7,0.6, left,1,0.3,0.4,0.6,0.7,2.4739601,1,78.71127319,5.6165654,8,49,2,2,1,6,0.5,1
55, test,4, no_probe,15,1,3,1,3,0.3,0.6, left,1,0.3,0.4,0.6,0.7,1.630918,0, , ,8,49,1,3,1,6,0.5,1
55, test,4, no_probe,16,3,4,4,3,0.6,0.7, right,2,0.3,0.4,0.6,0.7,2.2279061,1, , ,9,50,2,3,1,6,0.5,1
55, test,4, probe,17,3,2,2,3,0.6,0.4, right,2,0.3,0.4,0.6,0.7,1.0035321,1,80.80270386,3.8333031,10,51,3,3,1,6,0.5,1
55, test,4, no_probe,18,1,4,1,4,0.3,0.7, left,1,0.3,0.4,0.6,0.7,1.4066368,0, , ,10,51,1,3,1,6,0.5,1
55, test,4, no_probe,19,2,1,2,1,0.4,0.3, left,1,0.3,0.4,0.6,0.7,2.3881323,1, , ,11,52,2,3,1,6,0.5,1
55, test,4, probe,20,2,4,2,4,0.4,0.7, left,1,0.3,0.4,0.6,0.7,0.9933921,1,80.23138428,2.9333191,12,53,3,3,1,6,0.5,1
55, test,4, no_probe,21,4,3,3,4,0.7,0.6, right,2,0.3,0.4,0.6,0.7,1.4562604,0, , ,12,53,1,2,1,6,0.5,1
55, test,4, probe,22,1,4,1,4,0.3,0.7, left,1,0.3,0.4,0.6,0.7,1.024776,1,90.20431519,3.4833199,13,54,2,2,1,6,0.5,1
55, test,4, no_probe,23,2,4,2,4,0.4,0.7, left,1,0.3,0.4,0.6,0.7,0.6878181,0, , ,13,54,1,3,1,6,0.5,1
55, test,4, no_probe,24,1,2,1,2,0.3,0.4, left,1,0.3,0.4,0.6,0.7,3.0502112,0, , ,13,54,2,3,1,6,0.5,1
55, test,4, probe,25,1,2,2,1,0.3,0.4, right,2,0.3,0.4,0.6,0.7,0.9267463,0,70.66870117,3.4999607,13,54,3,3,1,6,0.5,1
55, test,5, no_probe,1,4,1,1,4,0.7,0.3, right,2,0.3,0.4,0.6,0.7,1.3031693,1, , ,1,55,1,2,1,6,0.5,1
55, test,5, probe,2,3,1,1,3,0.6,0.3, right,2,0.3,0.4,0.6,0.7,2.3407433,1,87.02160645,1.9999749,2,56,2,2,1,6,0.5,1
55, test,5, no_probe,3,3,1,3,1,0.6,0.3, left,1,0.3,0.4,0.6,0.7,1.4518667,1, , ,3,57,1,3,1,6,0.5,1
55, test,5, no_probe,4,4,3,3,4,0.7,0.6, right,2,0.3,0.4,0.6,0.7,1.3626794,1, , ,4,58,2,3,1,6,0.5,1
55, test,5, probe,5,4,2,2,4,0.7,0.4, right,2,0.3,0.4,0.6,0.7,1.5090575,1,75.54812622,3.6499333,5,59,3,3,1,6,0.5,1
55, test,5, no_probe,6,3,4,4,3,0.6,0.7, right,2,0.3,0.4,0.6,0.7,1.1032413,1, , ,6,60,1,2,1,6,0.5,1
55, test,5, probe,7,2,4,2,4,0.4,0.7, left,1,0.3,0.4,0.6,0.7,1.2792199,0,72.03887939,2.299929,6,60,2,2,1,6,0.5,1
55, test,5, no_probe,8,2,3,3,2,0.4,0.6, right,2,0.3,0.4,0.6,0.7,0.6820305,0, , ,6,60,1,3,1,6,0.5,1
55, test,5, no_probe,9,3,1,1,3,0.6,0.3, right,2,0.3,0.4,0.6,0.7,1.0689849,1, , ,7,61,2,3,1,6,0.5,1
55, test,5, probe,10,4,2,4,2,0.7,0.4, left,1,0.3,0.4,0.6,0.7,1.0618253,1,74.15692139,3.4332628,8,62,3,3,1,6,0.5,1
55, test,5, no_probe,11,4,2,2,4,0.7,0.4, right,2,0.3,0.4,0.6,0.7,0.6907103,1, , ,9,63,1,3,1,6,0.5,1
55, test,5, no_probe,12,3,1,3,1,0.6,0.3, left,1,0.3,0.4,0.6,0.7,1.3319842,0, , ,9,63,2,3,1,6,0.5,1
55, test,5, probe,13,1,3,3,1,0.3,0.6, right,2,0.3,0.4,0.6,0.7,1.0051663,0,76.14639282,6.2166082,9,63,3,3,1,6,0.5,1
55, test,5, no_probe,14,3,2,3,2,0.6,0.4, left,1,0.3,0.4,0.6,0.7,0.6605451,1, , ,10,64,1,2,1,6,0.5,1
55, test,5, probe,15,3,2,2,3,0.6,0.4, right,2,0.3,0.4,0.6,0.7,1.3267014,0,66.83721924,3.1666141,10,64,2,2,1,6,0.5,1
55, test,5, no_probe,16,2,4,4,2,0.4,0.7, right,2,0.3,0.4,0.6,0.7,0.976888,0, , ,10,64,1,2,1,6,0.5,1
55, test,5, probe,17,1,4,1,4,0.3,0.7, left,1,0.3,0.4,0.6,0.7,0.4517859,0,69.62042236,2.9832831,10,64,2,2,1,6,0.5,1
55, test,5, no_probe,18,2,1,2,1,0.4,0.3, left,1,0.3,0.4,0.6,0.7,0.8583595,0, , ,10,64,1,3,1,6,0.5,1
55, test,5, no_probe,19,4,2,2,4,0.7,0.4, right,2,0.3,0.4,0.6,0.7,0.8294129,1, , ,11,65,2,3,1,6,0.5,1
55, test,5, probe,20,3,2,3,2,0.6,0.4, left,1,0.3,0.4,0.6,0.7,0.7214139,0,68.40304565,2.9666045,11,65,3,3,1,6,0.5,1
55, test,5, no_probe,21,3,1,1,3,0.6,0.3, right,2,0.3,0.4,0.6,0.7,0.6900329,1, , ,12,66,1,3,1,6,0.5,1
55, test,5, no_probe,22,3,1,1,3,0.6,0.3, right,2,0.3,0.4,0.6,0.7,0.7648078,1, , ,13,67,2,3,1,6,0.5,1
55, test,5, probe,23,3,4,4,3,0.6,0.7, right,2,0.3,0.4,0.6,0.7,0.8502118,1,78.63098145,4.8998888,14,68,3,3,1,6,0.5,1
55, test,5, no_probe,24,3,1,3,1,0.6,0.3, left,1,0.3,0.4,0.6,0.7,0.8494783,0, , ,14,68,1,3,1,6,0.5,1
55, test,5, no_probe,25,1,3,3,1,0.3,0.6, right,2,0.3,0.4,0.6,0.7,0.3915499,0, , ,14,68,2,3,1,6,0.5,1
55, test,6, no_probe,1,2,4,2,4,0.4,0.7, left,1,0.3,0.4,0.6,0.7,1.9773121,1, , ,1,69,1,2,1,6,0.5,1
55, test,6, probe,2,4,1,1,4,0.7,0.3, right,2,0.3,0.4,0.6,0.7,1.7721267,1,86.14828491,3.0666071,2,70,2,2,1,6,0.5,1
55, test,6, no_probe,3,3,1,1,3,0.6,0.3, right,2,0.3,0.4,0.6,0.7,2.4382229,1, , ,3,71,1,2,1,6,0.5,1
55, test,6, probe,4,4,2,2,4,0.7,0.4, right,2,0.3,0.4,0.6,0.7,1.5936279,1,79.78521729,3.8499269,4,72,2,2,1,6,0.5,1
55, test,6, no_probe,5,1,2,1,2,0.3,0.4, left,1,0.3,0.4,0.6,0.7,2.1648759,0, , ,4,72,1,3,1,6,0.5,1
55, test,6, no_probe,6,4,3,3,4,0.7,0.6, right,2,0.3,0.4,0.6,0.7,0.8078281,1, , ,5,73,2,3,1,6,0.5,1
55, test,6, probe,7,2,3,2,3,0.4,0.6, left,1,0.3,0.4,0.6,0.7,1.2045912,1,80.93164063,2.4999523,6,74,3,3,1,6,0.5,1
55, test,6, no_probe,8,3,2,3,2,0.6,0.4, left,1,0.3,0.4,0.6,0.7,2.073303,1, , ,7,75,1,3,1,6,0.5,1
55, test,6, no_probe,9,3,4,3,4,0.6,0.7, left,1,0.3,0.4,0.6,0.7,1.2402175,0, , ,7,75,2,3,1,6,0.5,1
55, test,6, probe,10,4,2,4,2,0.7,0.4, left,1,0.3,0.4,0.6,0.7,1.307419,0,71.52688599,6.0332854,7,75,3,3,1,6,0.5,1
55, test,6, no_probe,11,4,1,4,1,0.7,0.3, left,1,0.3,0.4,0.6,0.7,2.4581682,0, , ,7,75,1,2,1,6,0.5,1
55, test,6, probe,12,1,2,1,2,0.3,0.4, left,1,0.3,0.4,0.6,0.7,1.0753555,1,69.82077026,2.4999383,8,76,2,2,1,6,0.5,1
55, test,6, no_probe,13,4,2,4,2,0.7,0.4, left,1,0.3,0.4,0.6,0.7,1.1442864,1, , ,9,77,1,3,1,6,0.5,1
55, test,6, no_probe,14,2,3,3,2,0.4,0.6, right,2,0.3,0.4,0.6,0.7,0.9501906,1, , ,10,78,2,3,1,6,0.5,1
55, test,6, probe,15,4,3,4,3,0.7,0.6, left,1,0.3,0.4,0.6,0.7,1.2020179,0,71.93261719,2.6166275,10,78,3,3,1,6,0.5,1
55, test,6, no_probe,16,2,4,2,4,0.4,0.7, left,1,0.3,0.4,0.6,0.7,1.5292233,0, , ,10,78,1,3,1,6,0.5,1
55, test,6, no_probe,17,4,2,2,4,0.7,0.4, right,2,0.3,0.4,0.6,0.7,0.5371809,1, , ,11,79,2,3,1,6,0.5,1
55, test,6, probe,18,3,1,3,1,0.6,0.3, left,1,0.3,0.4,0.6,0.7,1.4417861,1,71.46231079,2.98329,12,80,3,3,1,6,0.5,1
55, test,6, no_probe,19,1,2,2,1,0.3,0.4, right,2,0.3,0.4,0.6,0.7,0.9969115,0, , ,12,80,1,3,1,6,0.5,1
55, test,6, no_probe,20,1,4,1,4,0.3,0.7, left,1,0.3,0.4,0.6,0.7,0.6183134,0, , ,12,80,2,3,1,6,0.5,1
55, test,6, probe,21,2,3,2,3,0.4,0.6, left,1,0.3,0.4,0.6,0.7,1.2524333,0,69.4536438,5.1832746,12,80,3,3,1,6,0.5,1
55, test,6, no_probe,22,1,4,4,1,0.3,0.7, right,2,0.3,0.4,0.6,0.7,2.7671185,0, , ,12,80,1,2,1,6,0.5,1
55, test,6, probe,23,4,3,3,4,0.7,0.6, right,2,0.3,0.4,0.6,0.7,0.6457247,1,67.7364502,3.5999927,13,81,2,2,1,6,0.5,1
55, test,6, no_probe,24,4,2,4,2,0.7,0.4, left,1,0.3,0.4,0.6,0.7,1.1823417,1, , ,14,82,1,2,1,6,0.5,1
55, test,6, probe,25,4,1,1,4,0.7,0.3, right,2,0.3,0.4,0.6,0.7,0.4971518,1,68.75201416,2.4667014,15,83,2,2,1,6,0.5,1
55, test,7, no_probe,1,2,4,2,4,0.4,0.7, left,1,0.3,0.4,0.6,0.7,1.067911,0, , ,0,83,1,2,1,6,0.5,1
55, test,7, probe,2,2,1,1,2,0.4,0.3, right,2,0.3,0.4,0.6,0.7,2.4103174,0,61.72381592,3.2666503,0,83,2,2,1,6,0.5,1
55, test,7, no_probe,3,1,3,3,1,0.3,0.6, right,2,0.3,0.4,0.6,0.7,0.9845369,0, , ,0,83,1,3,1,6,0.5,1
55, test,7, no_probe,4,1,3,1,3,0.3,0.6, left,1,0.3,0.4,0.6,0.7,0.6354353,0, , ,0,83,2,3,1,6,0.5,1
55, test,7, probe,5,2,3,3,2,0.4,0.6, right,2,0.3,0.4,0.6,0.7,1.8143451,0,64.51123047,2.4499509,0,83,3,3,1,6,0.5,1
55, test,7, no_probe,6,2,4,2,4,0.4,0.7, left,1,0.3,0.4,0.6,0.7,0.6087887,1, , ,1,84,1,2,1,6,0.5,1
55, test,7, probe,7,2,1,1,2,0.4,0.3, right,2,0.3,0.4,0.6,0.7,0.5260035,0,58.55706787,2.6999803,1,84,2,2,1,6,0.5,1
55, test,7, no_probe,8,1,4,1,4,0.3,0.7, left,1,0.3,0.4,0.6,0.7,1.151921,0, , ,1,84,1,2,1,6,0.5,1
55, test,7, probe,9,3,2,2,3,0.6,0.4, right,2,0.3,0.4,0.6,0.7,1.8364495,1,62.70584106,2.0666121,2,85,2,2,1,6,0.5,1
55, test,7, no_probe,10,3,1,3,1,0.6,0.3, left,1,0.3,0.4,0.6,0.7,1.4596125,0, , ,2,85,1,2,1,6,0.5,1
55, test,7, probe,11,1,2,1,2,0.3,0.4, left,1,0.3,0.4,0.6,0.7,0.751077,0,68.29620361,3.3166565,2,85,2,2,1,6,0.5,1
55, test,7, no_probe,12,1,4,4,1,0.3,0.7, right,2,0.3,0.4,0.6,0.7,0.5936416,0, , ,2,85,1,2,1,6,0.5,1
55, test,7, probe,13,1,3,1,3,0.3,0.6, left,1,0.3,0.4,0.6,0.7,0.5317734,1,63.28872681,1.7832641,3,86,2,2,1,6,0.5,1
55, test,7, no_probe,14,1,3,3,1,0.3,0.6, right,2,0.3,0.4,0.6,0.7,0.8267086,1, , ,4,87,1,3,1,6,0.5,1
55, test,7, no_probe,15,2,4,4,2,0.4,0.7, right,2,0.3,0.4,0.6,0.7,0.9660628,0, , ,4,87,2,3,1,6,0.5,1
55, test,7, probe,16,1,2,2,1,0.3,0.4, right,2,0.3,0.4,0.6,0.7,1.045556,0,50.51245117,4.4500008,4,87,3,3,1,6,0.5,1
55, test,7, no_probe,17,4,3,4,3,0.7,0.6, left,1,0.3,0.4,0.6,0.7,0.8417306,1, , ,5,88,1,3,1,6,0.5,1
55, test,7, no_probe,18,3,1,1,3,0.6,0.3, right,2,0.3,0.4,0.6,0.7,1.5575853,0, , ,5,88,2,3,1,6,0.5,1
55, test,7, probe,19,2,3,2,3,0.4,0.6, left,1,0.3,0.4,0.6,0.7,0.5134585,0,43.99154663,3.8832311,5,88,3,3,1,6,0.5,1
55, test,7, no_probe,20,4,3,4,3,0.7,0.6, left,1,0.3,0.4,0.6,0.7,1.2166895,0, , ,5,88,1,2,1,6,0.5,1
55, test,7, probe,21,3,1,3,1,0.6,0.3, left,1,0.3,0.4,0.6,0.7,0.6173561,1,55.97293091,2.0500065,6,89,2,2,1,6,0.5,1
55, test,7, no_probe,22,1,4,1,4,0.3,0.7, left,1,0.3,0.4,0.6,0.7,1.3477812,0, , ,6,89,1,3,1,6,0.5,1
55, test,7, no_probe,23,1,3,3,1,0.3,0.6, right,2,0.3,0.4,0.6,0.7,0.7514186,0, , ,6,89,2,3,1,6,0.5,1
55, test,7, probe,24,4,2,4,2,0.7,0.4, left,1,0.3,0.4,0.6,0.7,0.6990989,0,45.94326782,1.9833337,6,89,3,3,1,6,0.5,1
55, test,7, no_probe,25,1,3,3,1,0.3,0.6, right,2,0.3,0.4,0.6,0.7,0.6181174,0, , ,6,89,1,3,1,6,0.5,1
55, test,8, no_probe,1,1,4,4,1,0.3,0.7, right,2,0.3,0.4,0.6,0.7,1.472817,0, , ,0,89,1,3,1,6,0.5,1
55, test,8, no_probe,2,3,2,3,2,0.6,0.4, left,1,0.3,0.4,0.6,0.7,2.127529,0, , ,0,89,2,3,1,6,0.5,1
55, test,8, probe,3,4,3,4,3,0.7,0.6, left,1,0.3,0.4,0.6,0.7,1.4669438,1,59.19320679,3.2996187,1,90,3,3,1,6,0.5,1
55, test,8, no_probe,4,4,2,2,4,0.7,0.4, right,2,0.3,0.4,0.6,0.7,0.9978847,1, , ,2,91,1,3,1,6,0.5,1
55, test,8, no_probe,5,1,3,1,3,0.3,0.6, left,1,0.3,0.4,0.6,0.7,0.8742707,0, , ,2,91,2,3,1,6,0.5,1
55, test,8, probe,6,4,3,4,3,0.7,0.6, left,1,0.3,0.4,0.6,0.7,1.845904,1,59.16171265,2.3499627,3,92,3,3,1,6,0.5,1
55, test,8, no_probe,7,4,3,4,3,0.7,0.6, left,1,0.3,0.4,0.6,0.7,0.6613968,0, , ,3,92,1,2,1,6,0.5,1
55, test,8, probe,8,2,3,3,2,0.4,0.6, right,2,0.3,0.4,0.6,0.7,1.7436224,0,60.90682983,2.0666621,3,92,2,2,1,6,0.5,1
55, test,8, no_probe,9,4,1,4,1,0.7,0.3, left,1,0.3,0.4,0.6,0.7,1.1853485,1, , ,4,93,1,3,1,6,0.5,1
55, test,8, no_probe,10,4,1,4,1,0.7,0.3, left,1,0.3,0.4,0.6,0.7,0.9424208,1, , ,5,94,2,3,1,6,0.5,1
55, test,8, probe,11,4,2,4,2,0.7,0.4, left,1,0.3,0.4,0.6,0.7,0.8301414,0,63.28936768,1.7666549,5,94,3,3,1,6,0.5,1
55, test,8, no_probe,12,3,1,1,3,0.6,0.3, right,2,0.3,0.4,0.6,0.7,1.6433151,0, , ,5,94,1,2,1,6,0.5,1
55, test,8, probe,13,4,3,3,4,0.7,0.6, right,2,0.3,0.4,0.6,0.7,1.8099575,1,66.30392456,2.2332758,6,95,2,2,1,6,0.5,1
55, test,8, no_probe,14,2,1,1,2,0.4,0.3, right,2,0.3,0.4,0.6,0.7,2.3981586,1, , ,7,96,1,3,1,6,0.5,1
55, test,8, no_probe,15,1,3,1,3,0.3,0.6, left,1,0.3,0.4,0.6,0.7,1.061856,0, , ,7,96,2,3,1,6,0.5,1
55, test,8, probe,16,2,1,2,1,0.4,0.3, left,1,0.3,0.4,0.6,0.7,1.4218197,0,62.13354492,2.8832432,7,96,3,3,1,6,0.5,1
55, test,8, no_probe,17,2,1,1,2,0.4,0.3, right,2,0.3,0.4,0.6,0.7,2.1102825,1, , ,8,97,1,3,1,6,0.5,1
55, test,8, no_probe,18,4,1,4,1,0.7,0.3, left,1,0.3,0.4,0.6,0.7,1.2192464,0, , ,8,97,2,3,1,6,0.5,1
55, test,8, probe,19,3,2,2,3,0.6,0.4, right,2,0.3,0.4,0.6,0.7,1.0122986,1,65.69229126,2.8166546,9,98,3,3,1,6,0.5,1
55, test,8, no_probe,20,2,3,3,2,0.4,0.6, right,2,0.3,0.4,0.6,0.7,1.4777827,0, , ,9,98,1,2,1,6,0.5,1
55, test,8, probe,21,4,3,3,4,0.7,0.6, right,2,0.3,0.4,0.6,0.7,0.9160449,1,54.6463623,2.9832293,10,99,2,2,1,6,0.5,1
55, test,8, no_probe,22,3,2,3,2,0.6,0.4, left,1,0.3,0.4,0.6,0.7,0.9443541,1, , ,11,100,1,2,1,6,0.5,1
55, test,8, probe,23,3,2,3,2,0.6,0.4, left,1,0.3,0.4,0.6,0.7,0.9285107,1,63.34863281,4.1833433,12,101,2,2,1,6,0.5,1
55, test,8, no_probe,24,1,3,1,3,0.3,0.6, left,1,0.3,0.4,0.6,0.7,0.698438,0, , ,12,101,1,2,1,6,0.5,1
55, test,8, probe,25,2,1,1,2,0.4,0.3, right,2,0.3,0.4,0.6,0.7,1.2320218,1,60.64416504,2.5832911,13,102,2,2,1,6,0.5,1
