subject, block_type, block, thought probe, trial, chosen, unchosen, offer_left_image, offer_right_image, exp_value_chosen, exp_value_unchosen, choice_location, choice_key, exp_value1, exp_value2, exp_value3, exp_value4, RT, reward, vas, RT_vas, coins_per_block, coins_per_task, count_to_prob, ntrial_to_prob, ITI_duration,RT_deadline,choice_feedback_duration,outcome_duration
3,practice,1, no_probe,1,3,4,3,4,0.6,0.7, left,1,0.3,0.4,0.6,0.7,0.8139819,0, , ,0,0,1,2,1,6,0.5,1
3,practice,1, probe,2,1,4,4,1,0.3,0.7, right,2,0.3,0.4,0.6,0.7,0.6267912,1,32.68127441,7.0332428,1,1,2,2,1,6,0.5,1
3,practice,1, no_probe,3,2,4,4,2,0.4,0.7, right,2,0.3,0.4,0.6,0.7,1.5124389,0, , ,1,1,1,3,1,6,0.5,1
3,practice,1, no_probe,4,3,2,3,2,0.6,0.4, left,1,0.3,0.4,0.6,0.7,0.4138347,1, , ,2,2,2,3,1,6,0.5,1
3,practice,1, probe,5,3,1,1,3,0.6,0.3, right,2,0.3,0.4,0.6,0.7,0.4336092,1,71.37545776,4.0666277,3,3,3,3,1,6,0.5,1
3,practice,1, no_probe,6,3,2,2,3,0.6,0.4, right,2,0.3,0.4,0.6,0.7,1.0017743,1, , ,4,4,1,2,1,6,0.5,1
3, test,1, no_probe,1,4,1,4,1,0.7,0.3, left,1,0.3,0.4,0.6,0.7,0.5092443,0, , ,0,4,1,2,1,6,0.5,1
3, test,1, probe,2,3,4,4,3,0.6,0.7, right,2,0.3,0.4,0.6,0.7,0.7464241,0,73.8913269,4.5999304,0,4,2,2,1,6,0.5,1
3, test,1, no_probe,3,1,2,1,2,0.3,0.4, left,1,0.3,0.4,0.6,0.7,1.2555813,1, , ,1,5,1,2,1,6,0.5,1
3, test,1, probe,4,1,4,1,4,0.3,0.7, left,1,0.3,0.4,0.6,0.7,0.4396058,0,98.21679688,5.1999358,1,5,2,2,1,6,0.5,1
3, test,1, no_probe,5,3,1,1,3,0.6,0.3, right,2,0.3,0.4,0.6,0.7,0.9346659,1, , ,2,6,1,2,1,6,0.5,1
3, test,1, probe,6,2,1,2,1,0.4,0.3, left,1,0.3,0.4,0.6,0.7,1.2108218,0,73.23583984,3.6499066,2,6,2,2,1,6,0.5,1
3, test,1, no_probe,7,4,2,2,4,0.7,0.4, right,2,0.3,0.4,0.6,0.7,0.6276591,1, , ,3,7,1,2,1,6,0.5,1
3, test,1, probe,8,4,2,2,4,0.7,0.4, right,2,0.3,0.4,0.6,0.7,0.6007587,1,95.28887939,2.6332554,4,8,2,2,1,6,0.5,1
3, test,1, no_probe,9,3,2,3,2,0.6,0.4, left,1,0.3,0.4,0.6,0.7,1.284007,1, , ,5,9,1,3,1,6,0.5,1
3, test,1, no_probe,10,3,2,3,2,0.6,0.4, left,1,0.3,0.4,0.6,0.7,0.4250052,1, , ,6,10,2,3,1,6,0.5,1
3, test,1, probe,11,3,1,1,3,0.6,0.3, right,2,0.3,0.4,0.6,0.7,0.6503822,0,96.08654785,4.4665741,6,10,3,3,1,6,0.5,1
3, test,1, no_probe,12,2,4,2,4,0.4,0.7, left,1,0.3,0.4,0.6,0.7,1.1529608,1, , ,7,11,1,2,1,6,0.5,1
3, test,1, probe,13,3,1,1,3,0.6,0.3, right,2,0.3,0.4,0.6,0.7,0.4610036,1,99.99908447,2.7833085,8,12,2,2,1,6,0.5,1
3, test,1, no_probe,14,3,2,3,2,0.6,0.4, left,1,0.3,0.4,0.6,0.7,1.0283342,1, , ,9,13,1,2,1,6,0.5,1
3, test,1, probe,15,1,2,2,1,0.3,0.4, right,2,0.3,0.4,0.6,0.7,0.5398648,0,70.8687439,3.8499157,9,13,2,2,1,6,0.5,1
3, test,1, no_probe,16,1,4,1,4,0.3,0.7, left,1,0.3,0.4,0.6,0.7,0.7324088,0, , ,9,13,1,3,1,6,0.5,1
3, test,1, no_probe,17,2,1,1,2,0.4,0.3, right,2,0.3,0.4,0.6,0.7,1.2451564,0, , ,9,13,2,3,1,6,0.5,1
3, test,1, probe,18,4,3,4,3,0.7,0.6, left,1,0.3,0.4,0.6,0.7,0.6404998,0,93.98599243,3.7499632,9,13,3,3,1,6,0.5,1
3, test,1, no_probe,19,3,1,1,3,0.6,0.3, right,2,0.3,0.4,0.6,0.7,0.6486427,1, , ,10,14,1,2,1,6,0.5,1
3, test,1, probe,20,1,2,1,2,0.3,0.4, left,1,0.3,0.4,0.6,0.7,0.4478978,1,86.16610718,1.4499169,11,15,2,2,1,6,0.5,1
3, test,1, no_probe,21,1,2,2,1,0.3,0.4, right,2,0.3,0.4,0.6,0.7,0.7198426,0, , ,11,15,1,3,1,6,0.5,1
3, test,1, no_probe,22,4,3,3,4,0.7,0.6, right,2,0.3,0.4,0.6,0.7,0.4656216,1, , ,12,16,2,3,1,6,0.5,1
3, test,1, probe,23,2,1,1,2,0.4,0.3, right,2,0.3,0.4,0.6,0.7,0.5872619,0,82.04647827,1.5999978,12,16,3,3,1,6,0.5,1
3, test,1, no_probe,24,3,2,3,2,0.6,0.4, left,1,0.3,0.4,0.6,0.7,0.9481817,0, , ,12,16,1,3,1,6,0.5,1
3, test,1, no_probe,25,4,1,1,4,0.7,0.3, right,2,0.3,0.4,0.6,0.7,0.3796831,1, , ,13,17,2,3,1,6,0.5,1
3, test,2, no_probe,1,4,3,3,4,0.7,0.6, right,2,0.3,0.4,0.6,0.7,0.4227668,0, , ,0,17,1,3,1,6,0.5,1
3, test,2, no_probe,2,3,1,3,1,0.6,0.3, left,1,0.3,0.4,0.6,0.7,0.5641211,1, , ,1,18,2,3,1,6,0.5,1
3, test,2, probe,3,3,4,3,4,0.6,0.7, left,1,0.3,0.4,0.6,0.7,0.6608313,1,98.24664307,3.3999636,2,19,3,3,1,6,0.5,1
3, test,2, no_probe,4,3,4,3,4,0.6,0.7, left,1,0.3,0.4,0.6,0.7,0.6392763,0, , ,2,19,1,3,1,6,0.5,1
3, test,2, no_probe,5,3,1,3,1,0.6,0.3, left,1,0.3,0.4,0.6,0.7,0.5126741,0, , ,2,19,2,3,1,6,0.5,1
3, test,2, probe,6,4,3,3,4,0.7,0.6, right,2,0.3,0.4,0.6,0.7,0.461119,1,99.99945068,2.6833115,3,20,3,3,1,6,0.5,1
3, test,2, no_probe,7,2,4,2,4,0.4,0.7, left,1,0.3,0.4,0.6,0.7,1.3225214,0, , ,3,20,1,3,1,6,0.5,1
3, test,2, no_probe,8,1,2,1,2,0.3,0.4, left,1,0.3,0.4,0.6,0.7,0.7641144,1, , ,4,21,2,3,1,6,0.5,1
3, test,2, probe,9,4,2,2,4,0.7,0.4, right,2,0.3,0.4,0.6,0.7,0.4503368,1,99.99905396,2.2666639,5,22,3,3,1,6,0.5,1
3, test,2, no_probe,10,2,4,4,2,0.4,0.7, right,2,0.3,0.4,0.6,0.7,1.7429785,1, , ,6,23,1,2,1,6,0.5,1
3, test,2, probe,11,2,4,2,4,0.4,0.7, left,1,0.3,0.4,0.6,0.7,0.4095468,0,89.81204224,2.4666357,6,23,2,2,1,6,0.5,1
3, test,2, no_probe,12,3,1,3,1,0.6,0.3, left,1,0.3,0.4,0.6,0.7,0.6397959,1, , ,7,24,1,2,1,6,0.5,1
3, test,2, probe,13,1,2,2,1,0.3,0.4, right,2,0.3,0.4,0.6,0.7,0.3877161,0,89.21154785,2.3165838,7,24,2,2,1,6,0.5,1
3, test,2, no_probe,14,3,2,3,2,0.6,0.4, left,1,0.3,0.4,0.6,0.7,0.6559859,1, , ,8,25,1,3,1,6,0.5,1
3, test,2, no_probe,15,2,4,4,2,0.4,0.7, right,2,0.3,0.4,0.6,0.7,0.5079283,0, , ,8,25,2,3,1,6,0.5,1
3, test,2, probe,16,3,1,3,1,0.6,0.3, left,1,0.3,0.4,0.6,0.7,0.5689979,1,99.99926758,2.666615,9,26,3,3,1,6,0.5,1
3, test,2, no_probe,17,2,4,2,4,0.4,0.7, left,1,0.3,0.4,0.6,0.7,0.8838315,0, , ,9,26,1,2,1,6,0.5,1
3, test,2, probe,18,4,2,2,4,0.7,0.4, right,2,0.3,0.4,0.6,0.7,0.6500808,1,93.15939331,1.9499768,10,27,2,2,1,6,0.5,1
3, test,2, no_probe,19,2,4,2,4,0.4,0.7, left,1,0.3,0.4,0.6,0.7,1.0448826,1, , ,11,28,1,3,1,6,0.5,1
3, test,2, no_probe,20,2,3,3,2,0.4,0.6, right,2,0.3,0.4,0.6,0.7,0.4767944,0, , ,11,28,2,3,1,6,0.5,1
3, test,2, probe,21,3,1,3,1,0.6,0.3, left,1,0.3,0.4,0.6,0.7,0.2202516,0,85.15905762,2.0999557,11,28,3,3,1,6,0.5,1
3, test,2, no_probe,22,2,4,4,2,0.4,0.7, right,2,0.3,0.4,0.6,0.7,0.5267311,1, , ,12,29,1,2,1,6,0.5,1
3, test,2, probe,23,2,3,2,3,0.4,0.6, left,1,0.3,0.4,0.6,0.7,0.3637185,0,26.47824097,4.1666146,12,29,2,2,1,6,0.5,1
3, test,2, no_probe,24,2,4,2,4,0.4,0.7, left,1,0.3,0.4,0.6,0.7,0.578489,0, , ,12,29,1,2,1,6,0.5,1
3, test,2, probe,25,1,4,4,1,0.3,0.7, right,2,0.3,0.4,0.6,0.7,0.876309,0,60.83621216,4.1832585,12,29,2,2,1,6,0.5,1
3, test,3, no_probe,1,2,4,2,4,0.4,0.7, left,1,0.3,0.4,0.6,0.7,0.5418283,0, , ,0,29,1,2,1,6,0.5,1
3, test,3, probe,2,2,4,4,2,0.4,0.7, right,2,0.3,0.4,0.6,0.7,0.4746448,0,99.75588989,3.2332931,0,29,2,2,1,6,0.5,1
3, test,3, no_probe,3,2,1,2,1,0.4,0.3, left,1,0.3,0.4,0.6,0.7,0.538786,1, , ,1,30,1,2,1,6,0.5,1
3, test,3, probe,4,3,1,1,3,0.6,0.3, right,2,0.3,0.4,0.6,0.7,1.2057084,1,97.70907593,2.4499796,2,31,2,2,1,6,0.5,1
3, test,3, no_probe,5,1,2,1,2,0.3,0.4, left,1,0.3,0.4,0.6,0.7,0.6758591,0, , ,2,31,1,2,1,6,0.5,1
3, test,3, probe,6,3,4,3,4,0.6,0.7, left,1,0.3,0.4,0.6,0.7,0.4865766,1,26.36898804,3.2332843,3,32,2,2,1,6,0.5,1
3, test,3, no_probe,7,2,4,4,2,0.4,0.7, right,2,0.3,0.4,0.6,0.7,0.7789321,1, , ,4,33,1,3,1,6,0.5,1
3, test,3, no_probe,8,2,4,2,4,0.4,0.7, left,1,0.3,0.4,0.6,0.7,0.5929479,0, , ,4,33,2,3,1,6,0.5,1
3, test,3, probe,9,3,1,3,1,0.6,0.3, left,1,0.3,0.4,0.6,0.7,0.6899666,0,29.60345459,2.6166088,4,33,3,3,1,6,0.5,1
3, test,3, no_probe,10,3,1,3,1,0.6,0.3, left,1,0.3,0.4,0.6,0.7,0.5340202,1, , ,5,34,1,2,1,6,0.5,1
3, test,3, probe,11,4,1,1,4,0.7,0.3, right,2,0.3,0.4,0.6,0.7,1.4073191,1,92.24191284,1.8833078,6,35,2,2,1,6,0.5,1
3, test,3, no_probe,12,2,1,2,1,0.4,0.3, left,1,0.3,0.4,0.6,0.7,1.0879219,0, , ,6,35,1,3,1,6,0.5,1
3, test,3, no_probe,13,1,3,3,1,0.3,0.6, right,2,0.3,0.4,0.6,0.7,0.3064099,1, , ,7,36,2,3,1,6,0.5,1
3, test,3, probe,14,1,4,1,4,0.3,0.7, left,1,0.3,0.4,0.6,0.7,0.9795289,0,99.99978638,2.0499369,7,36,3,3,1,6,0.5,1
3, test,3, no_probe,15,4,3,3,4,0.7,0.6, right,2,0.3,0.4,0.6,0.7,0.5330382,1, , ,8,37,1,3,1,6,0.5,1
3, test,3, no_probe,16,3,1,1,3,0.6,0.3, right,2,0.3,0.4,0.6,0.7,1.0182725,0, , ,8,37,2,3,1,6,0.5,1
3, test,3, probe,17,2,3,2,3,0.4,0.6, left,1,0.3,0.4,0.6,0.7,0.5697594,0,25.83346558,2.2999642,8,37,3,3,1,6,0.5,1
3, test,3, no_probe,18,3,1,1,3,0.6,0.3, right,2,0.3,0.4,0.6,0.7,0.7279818,0, , ,8,37,1,3,1,6,0.5,1
3, test,3, no_probe,19,3,4,3,4,0.6,0.7, left,1,0.3,0.4,0.6,0.7,0.7475744,0, , ,8,37,2,3,1,6,0.5,1
3, test,3, probe,20,4,2,2,4,0.7,0.4, right,2,0.3,0.4,0.6,0.7,0.4144968,0,33.7677002,1.1666135,8,37,3,3,1,6,0.5,1
3, test,3, no_probe,21,2,4,2,4,0.4,0.7, left,1,0.3,0.4,0.6,0.7,0.5569398,0, , ,8,37,1,2,1,6,0.5,1
3, test,3, probe,22,3,2,2,3,0.6,0.4, right,2,0.3,0.4,0.6,0.7,0.4315588,1,99.99859619,2.9833396,9,38,2,2,1,6,0.5,1
3, test,3, no_probe,23,4,1,4,1,0.7,0.3, left,1,0.3,0.4,0.6,0.7,1.5176754,1, , ,10,39,1,3,1,6,0.5,1
3, test,3, no_probe,24,1,2,2,1,0.3,0.4, right,2,0.3,0.4,0.6,0.7,1.2471656,0, , ,10,39,2,3,1,6,0.5,1
3, test,3, probe,25,4,1,1,4,0.7,0.3, right,2,0.3,0.4,0.6,0.7,1.0055031,1,89.14654541,1.5833303,11,40,3,3,1,6,0.5,1
3, test,4, no_probe,1,4,2,4,2,0.7,0.4, left,1,0.3,0.4,0.6,0.7,0.4955718,1, , ,1,41,1,2,1,6,0.5,1
3, test,4, probe,2,3,2,2,3,0.6,0.4, right,2,0.3,0.4,0.6,0.7,0.460757,0,97.16299438,2.0333208,1,41,2,2,1,6,0.5,1
3, test,4, no_probe,3,1,4,4,1,0.3,0.7, right,2,0.3,0.4,0.6,0.7,0.5142291,1, , ,2,42,1,2,1,6,0.5,1
3, test,4, probe,4,3,2,3,2,0.6,0.4, left,1,0.3,0.4,0.6,0.7,0.0021204,0,33.82955933,1.8166843,2,42,2,2,1,6,0.5,1
3, test,4, no_probe,5,3,4,3,4,0.6,0.7, left,1,0.3,0.4,0.6,0.7,0.5173238,1, , ,3,43,1,2,1,6,0.5,1
3, test,4, probe,6,1,4,4,1,0.3,0.7, right,2,0.3,0.4,0.6,0.7,0.774326,0,93.51052856,2.7666202,3,43,2,2,1,6,0.5,1
3, test,4, no_probe,7,4,2,4,2,0.7,0.4, left,1,0.3,0.4,0.6,0.7,0.5330989,1, , ,4,44,1,2,1,6,0.5,1
3, test,4, probe,8,4,2,2,4,0.7,0.4, right,2,0.3,0.4,0.6,0.7,0.5842433,0,99.99966431,2.0333186,4,44,2,2,1,6,0.5,1
3, test,4, no_probe,9,1,3,1,3,0.3,0.6, left,1,0.3,0.4,0.6,0.7,0.591584,0, , ,4,44,1,3,1,6,0.5,1
3, test,4, no_probe,10,2,1,2,1,0.4,0.3, left,1,0.3,0.4,0.6,0.7,0.8419497,0, , ,4,44,2,3,1,6,0.5,1
3, test,4, probe,11,4,2,2,4,0.7,0.4, right,2,0.3,0.4,0.6,0.7,0.6545276,1,84.57553101,1.6333442,5,45,3,3,1,6,0.5,1
3, test,4, no_probe,12,4,2,2,4,0.7,0.4, right,2,0.3,0.4,0.6,0.7,0.8425337,1, , ,6,46,1,3,1,6,0.5,1
3, test,4, no_probe,13,4,3,3,4,0.7,0.6, right,2,0.3,0.4,0.6,0.7,0.6985128,0, , ,6,46,2,3,1,6,0.5,1
3, test,4, probe,14,2,1,2,1,0.4,0.3, left,1,0.3,0.4,0.6,0.7,0.5601509,1,81.06057739,1.6332895,7,47,3,3,1,6,0.5,1
3, test,4, no_probe,15,1,4,4,1,0.3,0.7, right,2,0.3,0.4,0.6,0.7,0.5491021,0, , ,7,47,1,3,1,6,0.5,1
3, test,4, no_probe,16,3,4,3,4,0.6,0.7, left,1,0.3,0.4,0.6,0.7,0.6397453,0, , ,7,47,2,3,1,6,0.5,1
3, test,4, probe,17,4,3,3,4,0.7,0.6, right,2,0.3,0.4,0.6,0.7,0.6047246,1,1,7.1332873,8,48,3,3,1,6,0.5,1
3, test,4, no_probe,18,2,4,4,2,0.4,0.7, right,2,0.3,0.4,0.6,0.7,0.7469883,0, , ,8,48,1,3,1,6,0.5,1
3, test,4, no_probe,19,3,2,3,2,0.6,0.4, left,1,0.3,0.4,0.6,0.7,0.9791542,1, , ,9,49,2,3,1,6,0.5,1
3, test,4, probe,20,3,2,2,3,0.6,0.4, right,2,0.3,0.4,0.6,0.7,0.6883069,1,88.72161865,3.2666149,10,50,3,3,1,6,0.5,1
3, test,4, no_probe,21,3,2,2,3,0.6,0.4, right,2,0.3,0.4,0.6,0.7,0.7507354,1, , ,11,51,1,3,1,6,0.5,1
3, test,4, no_probe,22,4,1,4,1,0.7,0.3, left,1,0.3,0.4,0.6,0.7,0.4190181,1, , ,12,52,2,3,1,6,0.5,1
3, test,4, probe,23,2,1,1,2,0.4,0.3, right,2,0.3,0.4,0.6,0.7,0.3876819,0,70.94909668,1.6832818,12,52,3,3,1,6,0.5,1
3, test,4, no_probe,24,4,3,3,4,0.7,0.6, right,2,0.3,0.4,0.6,0.7,0.3490605,0, , ,12,52,1,3,1,6,0.5,1
3, test,4, no_probe,25,1,2,2,1,0.3,0.4, right,2,0.3,0.4,0.6,0.7,0.7317359,0, , ,12,52,2,3,1,6,0.5,1
3, test,5, no_probe,1,1,2,2,1,0.3,0.4, right,2,0.3,0.4,0.6,0.7,0.636529,0, , ,0,52,1,3,1,6,0.5,1
3, test,5, no_probe,2,1,2,1,2,0.3,0.4, left,1,0.3,0.4,0.6,0.7,0.3605344,0, , ,0,52,2,3,1,6,0.5,1
3, test,5, probe,3,2,1,2,1,0.4,0.3, left,1,0.3,0.4,0.6,0.7,0.5454571,0,99.99746704,4.9829229,0,52,3,3,1,6,0.5,1
3, test,5, no_probe,4,4,1,1,4,0.7,0.3, right,2,0.3,0.4,0.6,0.7,0.9276377,1, , ,1,53,1,2,1,6,0.5,1
3, test,5, probe,5,4,1,1,4,0.7,0.3, right,2,0.3,0.4,0.6,0.7,0.679973,1,99.99984741,1.7666243,2,54,2,2,1,6,0.5,1
3, test,5, no_probe,6,4,3,3,4,0.7,0.6, right,2,0.3,0.4,0.6,0.7,0.6298118,1, , ,3,55,1,2,1,6,0.5,1
3, test,5, probe,7,2,1,1,2,0.4,0.3, right,2,0.3,0.4,0.6,0.7,1.3005542,0,99.99972534,2.0832426,3,55,2,2,1,6,0.5,1
3, test,5, no_probe,8,3,2,2,3,0.6,0.4, right,2,0.3,0.4,0.6,0.7,0.815048,1, , ,4,56,1,2,1,6,0.5,1
3, test,5, probe,9,3,1,1,3,0.6,0.3, right,2,0.3,0.4,0.6,0.7,1.142249,1,99.99880981,2.2666234,5,57,2,2,1,6,0.5,1
3, test,5, no_probe,10,2,3,2,3,0.4,0.6, left,1,0.3,0.4,0.6,0.7,0.3991487,1, , ,6,58,1,2,1,6,0.5,1
3, test,5, probe,11,2,4,4,2,0.4,0.7, right,2,0.3,0.4,0.6,0.7,0.7839626,1,99.99899292,2.2332626,7,59,2,2,1,6,0.5,1
3, test,5, no_probe,12,4,3,4,3,0.7,0.6, left,1,0.3,0.4,0.6,0.7,0.876079,1, , ,8,60,1,3,1,6,0.5,1
3, test,5, no_probe,13,3,1,3,1,0.6,0.3, left,1,0.3,0.4,0.6,0.7,1.0151839,1, , ,9,61,2,3,1,6,0.5,1
3, test,5, probe,14,4,1,1,4,0.7,0.3, right,2,0.3,0.4,0.6,0.7,0.839422,1,99.99862671,2.2332296,10,62,3,3,1,6,0.5,1
3, test,5, no_probe,15,4,1,1,4,0.7,0.3, right,2,0.3,0.4,0.6,0.7,2.0534782,1, , ,11,63,1,2,1,6,0.5,1
3, test,5, probe,16,2,1,2,1,0.4,0.3, left,1,0.3,0.4,0.6,0.7,1.4927163,1,99.99816895,2.6999512,12,64,2,2,1,6,0.5,1
3, test,5, no_probe,17,2,3,2,3,0.4,0.6, left,1,0.3,0.4,0.6,0.7,1.2686805,1, , ,13,65,1,2,1,6,0.5,1
3, test,5, probe,18,4,2,4,2,0.7,0.4, left,1,0.3,0.4,0.6,0.7,1.0189477,1,99.99859619,2.1666509,14,66,2,2,1,6,0.5,1
3, test,5, no_probe,19,4,3,4,3,0.7,0.6, left,1,0.3,0.4,0.6,0.7,1.0679753,0, , ,14,66,1,2,1,6,0.5,1
3, test,5, probe,20,4,2,2,4,0.7,0.4, right,2,0.3,0.4,0.6,0.7,1.0590361,0,93.75973511,2.799967,14,66,2,2,1,6,0.5,1
3, test,5, no_probe,21,4,2,2,4,0.7,0.4, right,2,0.3,0.4,0.6,0.7,1.0482591,1, , ,15,67,1,2,1,6,0.5,1
3, test,5, probe,22,3,1,3,1,0.6,0.3, left,1,0.3,0.4,0.6,0.7,0.9160176,1,99.99914551,2.0333273,16,68,2,2,1,6,0.5,1
3, test,5, no_probe,23,2,3,3,2,0.4,0.6, right,2,0.3,0.4,0.6,0.7,1.129585,1, , ,17,69,1,2,1,6,0.5,1
3, test,5, probe,24,3,2,3,2,0.6,0.4, left,1,0.3,0.4,0.6,0.7,1.2352562,0,99.99917603,2.0332818,17,69,2,2,1,6,0.5,1
3, test,5, no_probe,25,4,3,3,4,0.7,0.6, right,2,0.3,0.4,0.6,0.7,0.6442985,1, , ,18,70,1,2,1,6,0.5,1
3, test,6, no_probe,1,2,4,2,4,0.4,0.7, left,1,0.3,0.4,0.6,0.7,0.3815613,0, , ,0,70,1,2,1,6,0.5,1
3, test,6, probe,2,4,3,3,4,0.7,0.6, right,2,0.3,0.4,0.6,0.7,0.4725638,1,92.69042969,2.4499624,1,71,2,2,1,6,0.5,1
3, test,6, no_probe,3,1,2,1,2,0.3,0.4, left,1,0.3,0.4,0.6,0.7,1.0999184,0, , ,1,71,1,2,1,6,0.5,1
3, test,6, probe,4,2,4,4,2,0.4,0.7, right,2,0.3,0.4,0.6,0.7,0.9282914,1,77.28771973,2.0499562,2,72,2,2,1,6,0.5,1
3, test,6, no_probe,5,1,4,1,4,0.3,0.7, left,1,0.3,0.4,0.6,0.7,0.5980182,0, , ,2,72,1,3,1,6,0.5,1
3, test,6, no_probe,6,3,2,2,3,0.6,0.4, right,2,0.3,0.4,0.6,0.7,0.4266097,1, , ,3,73,2,3,1,6,0.5,1
3, test,6, probe,7,4,1,4,1,0.7,0.3, left,1,0.3,0.4,0.6,0.7,1.3875179,0,74.14346313,1.7500331,3,73,3,3,1,6,0.5,1
3, test,6, no_probe,8,2,4,4,2,0.4,0.7, right,2,0.3,0.4,0.6,0.7,0.4343683,1, , ,4,74,1,3,1,6,0.5,1
3, test,6, no_probe,9,1,3,1,3,0.3,0.6, left,1,0.3,0.4,0.6,0.7,0.6433436,1, , ,5,75,2,3,1,6,0.5,1
3, test,6, probe,10,3,4,4,3,0.6,0.7, right,2,0.3,0.4,0.6,0.7,0.6673393,0,54.39520264,2.4999662,5,75,3,3,1,6,0.5,1
3, test,6, no_probe,11,3,1,3,1,0.6,0.3, left,1,0.3,0.4,0.6,0.7,1.3562717,1, , ,6,76,1,3,1,6,0.5,1
3, test,6, no_probe,12,3,4,3,4,0.6,0.7, left,1,0.3,0.4,0.6,0.7,1.5080631,0, , ,6,76,2,3,1,6,0.5,1
3, test,6, probe,13,4,2,2,4,0.7,0.4, right,2,0.3,0.4,0.6,0.7,1.3055984,0,61.51242065,3.0666298,6,76,3,3,1,6,0.5,1
3, test,6, no_probe,14,1,3,1,3,0.3,0.6, left,1,0.3,0.4,0.6,0.7,0.4575555,0, , ,6,76,1,2,1,6,0.5,1
3, test,6, probe,15,2,1,2,1,0.4,0.3, left,1,0.3,0.4,0.6,0.7,0.9458998,1,59.50198364,1.3832706,7,77,2,2,1,6,0.5,1
3, test,6, no_probe,16,2,1,1,2,0.4,0.3, right,2,0.3,0.4,0.6,0.7,0.8163542,0, , ,7,77,1,3,1,6,0.5,1
3, test,6, no_probe,17,1,2,1,2,0.3,0.4, left,1,0.3,0.4,0.6,0.7,1.7375494,1, , ,8,78,2,3,1,6,0.5,1
3, test,6, probe,18,2,4,4,2,0.4,0.7, right,2,0.3,0.4,0.6,0.7,0.7210754,0,61.93838501,1.266616,8,78,3,3,1,6,0.5,1
3, test,6, no_probe,19,4,1,1,4,0.7,0.3, right,2,0.3,0.4,0.6,0.7,1.4370769,1, , ,9,79,1,2,1,6,0.5,1
3, test,6, probe,20,4,2,4,2,0.7,0.4, left,1,0.3,0.4,0.6,0.7,1.2979352,1,75.08557129,2.1999687,10,80,2,2,1,6,0.5,1
3, test,6, no_probe,21,4,2,2,4,0.7,0.4, right,2,0.3,0.4,0.6,0.7,0.8537316,1, , ,11,81,1,2,1,6,0.5,1
3, test,6, probe,22,4,2,2,4,0.7,0.4, right,2,0.3,0.4,0.6,0.7,0.6449289,1,80.94110107,1.2833391,12,82,2,2,1,6,0.5,1
3, test,6, no_probe,23,2,4,2,4,0.4,0.7, left,1,0.3,0.4,0.6,0.7,0.9244685,0, , ,12,82,1,3,1,6,0.5,1
3, test,6, no_probe,24,2,1,1,2,0.4,0.3, right,2,0.3,0.4,0.6,0.7,0.6096253,1, , ,13,83,2,3,1,6,0.5,1
3, test,6, probe,25,3,1,3,1,0.6,0.3, left,1,0.3,0.4,0.6,0.7,0.7988851,1,76.6534729,2.2333248,14,84,3,3,1,6,0.5,1
3, test,7, no_probe,1,3,4,3,4,0.6,0.7, left,1,0.3,0.4,0.6,0.7,0.8985347,1, , ,1,85,1,3,1,6,0.5,1
3, test,7, no_probe,2,2,1,1,2,0.4,0.3, right,2,0.3,0.4,0.6,0.7,0.5477453,0, , ,1,85,2,3,1,6,0.5,1
3, test,7, probe,3,2,3,2,3,0.4,0.6, left,1,0.3,0.4,0.6,0.7,0.1986452,0,36.01950073,1.7329401,1,85,3,3,1,6,0.5,1
3, test,7, no_probe,4,2,4,2,4,0.4,0.7, left,1,0.3,0.4,0.6,0.7,1.1738694,0, , ,1,85,1,3,1,6,0.5,1
3, test,7, no_probe,5,2,1,1,2,0.4,0.3, right,2,0.3,0.4,0.6,0.7,0.1789891,0, , ,1,85,2,3,1,6,0.5,1
3, test,7, probe,6,4,3,3,4,0.7,0.6, right,2,0.3,0.4,0.6,0.7,0.5425948,1,21.14602661,1.2499799,2,86,3,3,1,6,0.5,1
3, test,7, no_probe,7,3,2,3,2,0.6,0.4, left,1,0.3,0.4,0.6,0.7,0.5180688,0, , ,2,86,1,2,1,6,0.5,1
3, test,7, probe,8,2,3,2,3,0.4,0.6, left,1,0.3,0.4,0.6,0.7,0.2107621,0,70.17373657,2.5166512,2,86,2,2,1,6,0.5,1
3, test,7, no_probe,9,3,4,4,3,0.6,0.7, right,2,0.3,0.4,0.6,0.7,1.7474195,1, , ,3,87,1,2,1,6,0.5,1
3, test,7, probe,10,1,4,1,4,0.3,0.7, left,1,0.3,0.4,0.6,0.7,0.457635,0,23.66952515,2.483242,3,87,2,2,1,6,0.5,1
3, test,7, no_probe,11,1,3,3,1,0.3,0.6, right,2,0.3,0.4,0.6,0.7,0.9601631,0, , ,3,87,1,2,1,6,0.5,1
3, test,7, probe,12,4,1,4,1,0.7,0.3, left,1,0.3,0.4,0.6,0.7,0.6712719,0,85.84179688,2.2666298,3,87,2,2,1,6,0.5,1
3, test,7, no_probe,13,1,4,4,1,0.3,0.7, right,2,0.3,0.4,0.6,0.7,3.6336322,0, , ,3,87,1,2,1,6,0.5,1
3, test,7, probe,14,2,1,2,1,0.4,0.3, left,1,0.3,0.4,0.6,0.7,1.6658056,0,83.03219604,4.5999438,3,87,2,2,1,6,0.5,1
3, test,7, no_probe,15,2,3,3,2,0.4,0.6, right,2,0.3,0.4,0.6,0.7,1.4883353,0, , ,3,87,1,3,1,6,0.5,1
3, test,7, no_probe,16,1,2,2,1,0.3,0.4, right,2,0.3,0.4,0.6,0.7,0.8664068,1, , ,4,88,2,3,1,6,0.5,1
3, test,7, probe,17,1,3,3,1,0.3,0.6, right,2,0.3,0.4,0.6,0.7,0.67602,0,94.36373901,1.5333221,4,88,3,3,1,6,0.5,1
3, test,7, no_probe,18,2,3,3,2,0.4,0.6, right,2,0.3,0.4,0.6,0.7,0.9841948,0, , ,4,88,1,2,1,6,0.5,1
3, test,7, probe,19,1,4,1,4,0.3,0.7, left,1,0.3,0.4,0.6,0.7,0.262014,0,25.53015137,3.7166294,4,88,2,2,1,6,0.5,1
3, test,7, no_probe,20,2,3,3,2,0.4,0.6, right,2,0.3,0.4,0.6,0.7,0.2907064,0, , ,4,88,1,2,1,6,0.5,1
3, test,7, probe,21,3,4,3,4,0.6,0.7, left,1,0.3,0.4,0.6,0.7,1.2933876,0,35.71560669,2.5333193,4,88,2,2,1,6,0.5,1
3, test,7, no_probe,22,1,3,3,1,0.3,0.6, right,2,0.3,0.4,0.6,0.7,1.1643757,0, , ,4,88,1,3,1,6,0.5,1
3, test,7, no_probe,23,4,3,4,3,0.7,0.6, left,1,0.3,0.4,0.6,0.7,0.9070451,1, , ,5,89,2,3,1,6,0.5,1
3, test,7, probe,24,4,1,1,4,0.7,0.3, right,2,0.3,0.4,0.6,0.7,0.7606169,1,49.99841309,0.8666775,6,90,3,3,1,6,0.5,1
3, test,7, no_probe,25,4,1,4,1,0.7,0.3, left,1,0.3,0.4,0.6,0.7,0.8321014,1, , ,7,91,1,3,1,6,0.5,1
3, test,8, no_probe,1,2,3,2,3,0.4,0.6, left,1,0.3,0.4,0.6,0.7,0.6123791,1, , ,1,92,1,3,1,6,0.5,1
3, test,8, no_probe,2,2,1,1,2,0.4,0.3, right,2,0.3,0.4,0.6,0.7,0.9921278,0, , ,1,92,2,3,1,6,0.5,1
3, test,8, probe,3,4,2,2,4,0.7,0.4, right,2,0.3,0.4,0.6,0.7,0.7237494,1,99.99856567,2.4995811,2,93,3,3,1,6,0.5,1
3, test,8, no_probe,4,1,4,4,1,0.3,0.7, right,2,0.3,0.4,0.6,0.7,0.9586738,0, , ,2,93,1,3,1,6,0.5,1
3, test,8, no_probe,5,4,2,2,4,0.7,0.4, right,2,0.3,0.4,0.6,0.7,1.3134124,1, , ,3,94,2,3,1,6,0.5,1
3, test,8, probe,6,4,3,4,3,0.7,0.6, left,1,0.3,0.4,0.6,0.7,0.4591122,1,99.99926758,2.1166098,4,95,3,3,1,6,0.5,1
3, test,8, no_probe,7,1,3,1,3,0.3,0.6, left,1,0.3,0.4,0.6,0.7,1.0565256,0, , ,4,95,1,3,1,6,0.5,1
3, test,8, no_probe,8,3,4,4,3,0.6,0.7, right,2,0.3,0.4,0.6,0.7,1.7638816,0, , ,4,95,2,3,1,6,0.5,1
3, test,8, probe,9,2,3,2,3,0.4,0.6, left,1,0.3,0.4,0.6,0.7,0.7093542,1,95.61779785,1.9333107,5,96,3,3,1,6,0.5,1
3, test,8, no_probe,10,1,3,1,3,0.3,0.6, left,1,0.3,0.4,0.6,0.7,0.8090015,0, , ,5,96,1,3,1,6,0.5,1
3, test,8, no_probe,11,2,1,2,1,0.4,0.3, left,1,0.3,0.4,0.6,0.7,1.9867564,1, , ,6,97,2,3,1,6,0.5,1
3, test,8, probe,12,4,1,4,1,0.7,0.3, left,1,0.3,0.4,0.6,0.7,0.5117592,1,99.99990845,1.7166453,7,98,3,3,1,6,0.5,1
3, test,8, no_probe,13,2,3,3,2,0.4,0.6, right,2,0.3,0.4,0.6,0.7,0.9866559,0, , ,7,98,1,2,1,6,0.5,1
3, test,8, probe,14,4,1,4,1,0.7,0.3, left,1,0.3,0.4,0.6,0.7,0.5247537,0,99.99957275,2.1166238,7,98,2,2,1,6,0.5,1
3, test,8, no_probe,15,4,1,4,1,0.7,0.3, left,1,0.3,0.4,0.6,0.7,0.5634294,0, , ,7,98,1,2,1,6,0.5,1
3, test,8, probe,16,4,1,4,1,0.7,0.3, left,1,0.3,0.4,0.6,0.7,0.6148155,1,99.99945068,1.5332659,8,99,2,2,1,6,0.5,1
3, test,8, no_probe,17,3,2,2,3,0.6,0.4, right,2,0.3,0.4,0.6,0.7,0.6038231,0, , ,8,99,1,2,1,6,0.5,1
3, test,8, probe,18,2,3,3,2,0.4,0.6, right,2,0.3,0.4,0.6,0.7,0.5332932,0,98.00930786,1.6666193,8,99,2,2,1,6,0.5,1
3, test,8, no_probe,19,4,1,4,1,0.7,0.3, left,1,0.3,0.4,0.6,0.7,0.313021,1, , ,9,100,1,3,1,6,0.5,1
3, test,8, no_probe,20,4,2,4,2,0.7,0.4, left,1,0.3,0.4,0.6,0.7,0.2977035,0, , ,9,100,2,3,1,6,0.5,1
3, test,8, probe,21,3,2,2,3,0.6,0.4, right,2,0.3,0.4,0.6,0.7,1.2604074,1,86.3447876,1.5499952,10,101,3,3,1,6,0.5,1
3, test,8, no_probe,22,4,2,2,4,0.7,0.4, right,2,0.3,0.4,0.6,0.7,1.1904409,1, , ,11,102,1,3,1,6,0.5,1
3, test,8, no_probe,23,2,3,3,2,0.4,0.6, right,2,0.3,0.4,0.6,0.7,1.2581436,0, , ,11,102,2,3,1,6,0.5,1
3, test,8, probe,24,3,1,3,1,0.6,0.3, left,1,0.3,0.4,0.6,0.7,0.8158124,1,97.39352417,2.9832647,12,103,3,3,1,6,0.5,1
3, test,8, no_probe,25,3,1,3,1,0.6,0.3, left,1,0.3,0.4,0.6,0.7,1.2808674,0, , ,12,103,1,2,1,6,0.5,1
