subject, block_type, block, thought probe, trial, chosen, unchosen, offer_left_image, offer_right_image, exp_value_chosen, exp_value_unchosen, choice_location, choice_key, exp_value1, exp_value2, exp_value3, exp_value4, RT, reward, vas, RT_vas, coins_per_block, coins_per_task, count_to_prob, ntrial_to_prob, ITI_duration,RT_deadline,choice_feedback_duration,outcome_duration
9,practice,1, no_probe,1,2,4,2,4,0.4,0.7, left,1,0.3,0.4,0.6,0.7,0.9786427,0, , ,0,0,1,2,1,6,0.5,1
9,practice,1, probe,2,3,1,1,3,0.6,0.3, right,2,0.3,0.4,0.6,0.7,1.1176497,1,99.99960327,3.349952,1,1,2,2,1,6,0.5,1
9,practice,1, no_probe,3,3,2,3,2,0.6,0.4, left,1,0.3,0.4,0.6,0.7,1.0823911,0, , ,1,1,1,2,1,6,0.5,1
9,practice,1, probe,4,1,2,1,2,0.3,0.4, left,1,0.3,0.4,0.6,0.7,1.2968966,0,99.99972534,2.1666382,1,1,2,2,1,6,0.5,1
9,practice,1, no_probe,5,4,2,4,2,0.7,0.4, left,1,0.3,0.4,0.6,0.7,0.9187183,1, , ,2,2,1,2,1,6,0.5,1
9,practice,1, probe,6,4,1,4,1,0.7,0.3, left,1,0.3,0.4,0.6,0.7,1.0874401,1,99.99972534,1.6166409,3,3,2,2,1,6,0.5,1
9, test,1, no_probe,1,1,2,1,2,0.3,0.4, left,1,0.3,0.4,0.6,0.7,1.1187484,0, , ,0,3,1,3,1,6,0.5,1
9, test,1, no_probe,2,4,3,4,3,0.7,0.6, left,1,0.3,0.4,0.6,0.7,1.1154456,0, , ,0,3,2,3,1,6,0.5,1
9, test,1, probe,3,3,2,3,2,0.6,0.4, left,1,0.3,0.4,0.6,0.7,1.9090088,1,99.99975586,2.0662236,1,4,3,3,1,6,0.5,1
9, test,1, no_probe,4,4,1,4,1,0.7,0.3, left,1,0.3,0.4,0.6,0.7,1.269565,1, , ,2,5,1,3,1,6,0.5,1
9, test,1, no_probe,5,2,1,2,1,0.4,0.3, left,1,0.3,0.4,0.6,0.7,1.9402591,1, , ,3,6,2,3,1,6,0.5,1
9, test,1, probe,6,2,1,2,1,0.4,0.3, left,1,0.3,0.4,0.6,0.7,0.8642034,1,99.99981689,1.73331,4,7,3,3,1,6,0.5,1
9, test,1, no_probe,7,4,1,1,4,0.7,0.3, right,2,0.3,0.4,0.6,0.7,0.9085479,1, , ,5,8,1,2,1,6,0.5,1
9, test,1, probe,8,2,1,2,1,0.4,0.3, left,1,0.3,0.4,0.6,0.7,1.0618673,1,99.99981689,1.5166364,6,9,2,2,1,6,0.5,1
9, test,1, no_probe,9,3,2,3,2,0.6,0.4, left,1,0.3,0.4,0.6,0.7,1.4518381,0, , ,6,9,1,3,1,6,0.5,1
9, test,1, no_probe,10,2,4,2,4,0.4,0.7, left,1,0.3,0.4,0.6,0.7,1.4511997,0, , ,6,9,2,3,1,6,0.5,1
9, test,1, probe,11,4,1,1,4,0.7,0.3, right,2,0.3,0.4,0.6,0.7,0.7295078,1,99.99978638,1.2999985,7,10,3,3,1,6,0.5,1
9, test,1, no_probe,12,2,3,3,2,0.4,0.6, right,2,0.3,0.4,0.6,0.7,1.597097,0, , ,7,10,1,3,1,6,0.5,1
9, test,1, no_probe,13,3,1,3,1,0.6,0.3, left,1,0.3,0.4,0.6,0.7,1.0818572,1, , ,8,11,2,3,1,6,0.5,1
9, test,1, probe,14,4,1,1,4,0.7,0.3, right,2,0.3,0.4,0.6,0.7,0.7201274,1,99.99987793,1.6166749,9,12,3,3,1,6,0.5,1
9, test,1, no_probe,15,4,2,2,4,0.7,0.4, right,2,0.3,0.4,0.6,0.7,2.2359107,1, , ,10,13,1,3,1,6,0.5,1
9, test,1, no_probe,16,4,2,2,4,0.7,0.4, right,2,0.3,0.4,0.6,0.7,0.8430708,0, , ,10,13,2,3,1,6,0.5,1
9, test,1, probe,17,3,2,3,2,0.6,0.4, left,1,0.3,0.4,0.6,0.7,0.9677624,1,99.99771118,3.0333108,11,14,3,3,1,6,0.5,1
9, test,1, no_probe,18,4,2,2,4,0.7,0.4, right,2,0.3,0.4,0.6,0.7,2.7782589,1, , ,12,15,1,3,1,6,0.5,1
9, test,1, no_probe,19,4,2,4,2,0.7,0.4, left,1,0.3,0.4,0.6,0.7,0.4058016,1, , ,13,16,2,3,1,6,0.5,1
9, test,1, probe,20,3,2,3,2,0.6,0.4, left,1,0.3,0.4,0.6,0.7,0.7990047,0,84.40139771,1.1999785,13,16,3,3,1,6,0.5,1
9, test,1, no_probe,21,4,2,4,2,0.7,0.4, left,1,0.3,0.4,0.6,0.7,0.9034409,1, , ,14,17,1,2,1,6,0.5,1
9, test,1, probe,22,4,2,4,2,0.7,0.4, left,1,0.3,0.4,0.6,0.7,0.8871513,1,99.99981689,1.7832713,15,18,2,2,1,6,0.5,1
9, test,1, no_probe,23,2,1,2,1,0.4,0.3, left,1,0.3,0.4,0.6,0.7,0.8298855,1, , ,16,19,1,2,1,6,0.5,1
9, test,1, probe,24,3,1,1,3,0.6,0.3, right,2,0.3,0.4,0.6,0.7,0.7693878,1,99.99984741,1.5333177,17,20,2,2,1,6,0.5,1
9, test,1, no_probe,25,3,1,1,3,0.6,0.3, right,2,0.3,0.4,0.6,0.7,0.6301986,1, , ,18,21,1,2,1,6,0.5,1
9, test,2, no_probe,1,4,3,3,4,0.7,0.6, right,2,0.3,0.4,0.6,0.7,0.9102246,1, , ,1,22,1,3,1,6,0.5,1
9, test,2, no_probe,2,4,3,4,3,0.7,0.6, left,1,0.3,0.4,0.6,0.7,0.8351927,0, , ,1,22,2,3,1,6,0.5,1
9, test,2, probe,3,2,4,2,4,0.4,0.7, left,1,0.3,0.4,0.6,0.7,1.3962676,1,99.99981689,1.7829474,2,23,3,3,1,6,0.5,1
9, test,2, no_probe,4,4,3,4,3,0.7,0.6, left,1,0.3,0.4,0.6,0.7,1.6798265,1, , ,3,24,1,2,1,6,0.5,1
9, test,2, probe,5,2,4,4,2,0.4,0.7, right,2,0.3,0.4,0.6,0.7,0.9553488,0,99.99978638,1.6666312,3,24,2,2,1,6,0.5,1
9, test,2, no_probe,6,4,1,4,1,0.7,0.3, left,1,0.3,0.4,0.6,0.7,0.8304807,0, , ,3,24,1,2,1,6,0.5,1
9, test,2, probe,7,3,1,1,3,0.6,0.3, right,2,0.3,0.4,0.6,0.7,1.3624359,0,99.11947632,1.4332937,3,24,2,2,1,6,0.5,1
9, test,2, no_probe,8,2,4,2,4,0.4,0.7, left,1,0.3,0.4,0.6,0.7,1.8182201,0, , ,3,24,1,2,1,6,0.5,1
9, test,2, probe,9,1,2,1,2,0.3,0.4, left,1,0.3,0.4,0.6,0.7,1.0869786,1,85.98449707,1.2166006,4,25,2,2,1,6,0.5,1
9, test,2, no_probe,10,1,2,1,2,0.3,0.4, left,1,0.3,0.4,0.6,0.7,0.9953655,1, , ,5,26,1,3,1,6,0.5,1
9, test,2, no_probe,11,1,3,3,1,0.3,0.6, right,2,0.3,0.4,0.6,0.7,0.5118826,0, , ,5,26,2,3,1,6,0.5,1
9, test,2, probe,12,4,3,4,3,0.7,0.6, left,1,0.3,0.4,0.6,0.7,1.4779129,0,93.7628479,1.3166811,5,26,3,3,1,6,0.5,1
9, test,2, no_probe,13,3,4,3,4,0.6,0.7, left,1,0.3,0.4,0.6,0.7,1.3214049,1, , ,6,27,1,2,1,6,0.5,1
9, test,2, probe,14,4,2,2,4,0.7,0.4, right,2,0.3,0.4,0.6,0.7,1.3862922,1,99.99978638,1.7333157,7,28,2,2,1,6,0.5,1
9, test,2, no_probe,15,3,2,2,3,0.6,0.4, right,2,0.3,0.4,0.6,0.7,1.7333402,0, , ,7,28,1,3,1,6,0.5,1
9, test,2, no_probe,16,1,2,1,2,0.3,0.4, left,1,0.3,0.4,0.6,0.7,0.5325918,1, , ,8,29,2,3,1,6,0.5,1
9, test,2, probe,17,2,4,4,2,0.4,0.7, right,2,0.3,0.4,0.6,0.7,0.9460465,0,99.99984741,1.5999573,8,29,3,3,1,6,0.5,1
9, test,2, no_probe,18,1,2,1,2,0.3,0.4, left,1,0.3,0.4,0.6,0.7,0.9314715,1, , ,9,30,1,2,1,6,0.5,1
9, test,2, probe,19,3,4,4,3,0.6,0.7, right,2,0.3,0.4,0.6,0.7,1.2361289,1,99.99984741,1.6333192,10,31,2,2,1,6,0.5,1
9, test,2, no_probe,20,2,3,3,2,0.4,0.6, right,2,0.3,0.4,0.6,0.7,2.2721753,0, , ,10,31,1,2,1,6,0.5,1
9, test,2, probe,21,1,3,3,1,0.3,0.6, right,2,0.3,0.4,0.6,0.7,0.3958546,0,99.29541016,1.5500393,10,31,2,2,1,6,0.5,1
9, test,2, no_probe,22,3,4,4,3,0.6,0.7, right,2,0.3,0.4,0.6,0.7,2.6618165,1, , ,11,32,1,2,1,6,0.5,1
9, test,2, probe,23,1,4,1,4,0.3,0.7, left,1,0.3,0.4,0.6,0.7,0.4206394,1,99.99981689,2.0833059,12,33,2,2,1,6,0.5,1
9, test,2, no_probe,24,1,4,4,1,0.3,0.7, right,2,0.3,0.4,0.6,0.7,0.683507,0, , ,12,33,1,2,1,6,0.5,1
9, test,2, probe,25,4,2,4,2,0.7,0.4, left,1,0.3,0.4,0.6,0.7,1.7466508,1,99.99975586,1.6833005,13,34,2,2,1,6,0.5,1
9, test,3, no_probe,1,1,4,4,1,0.3,0.7, right,2,0.3,0.4,0.6,0.7,1.4191341,1, , ,1,35,1,3,1,6,0.5,1
9, test,3, no_probe,2,1,2,2,1,0.3,0.4, right,2,0.3,0.4,0.6,0.7,0.8690969,0, , ,1,35,2,3,1,6,0.5,1
9, test,3, probe,3,2,4,4,2,0.4,0.7, right,2,0.3,0.4,0.6,0.7,0.6793625,0,99.35580444,1.6833398,1,35,3,3,1,6,0.5,1
9, test,3, no_probe,4,2,1,2,1,0.4,0.3, left,1,0.3,0.4,0.6,0.7,1.8014742,0, , ,1,35,1,3,1,6,0.5,1
9, test,3, no_probe,5,2,1,2,1,0.4,0.3, left,1,0.3,0.4,0.6,0.7,1.4139183,0, , ,1,35,2,3,1,6,0.5,1
9, test,3, probe,6,1,2,2,1,0.3,0.4, right,2,0.3,0.4,0.6,0.7,1.0179314,0,48.48165894,2.6666186,1,35,3,3,1,6,0.5,1
9, test,3, no_probe,7,2,4,2,4,0.4,0.7, left,1,0.3,0.4,0.6,0.7,1.7515295,0, , ,1,35,1,3,1,6,0.5,1
9, test,3, no_probe,8,1,4,1,4,0.3,0.7, left,1,0.3,0.4,0.6,0.7,1.8515533,0, , ,1,35,2,3,1,6,0.5,1
9, test,3, probe,9,3,2,3,2,0.6,0.4, left,1,0.3,0.4,0.6,0.7,0.8772976,1,62.18023682,2.4999428,2,36,3,3,1,6,0.5,1
9, test,3, no_probe,10,3,2,3,2,0.6,0.4, left,1,0.3,0.4,0.6,0.7,0.5601091,1, , ,3,37,1,2,1,6,0.5,1
9, test,3, probe,11,1,2,2,1,0.3,0.4, right,2,0.3,0.4,0.6,0.7,1.682968,1,99.99978638,1.9333109,4,38,2,2,1,6,0.5,1
9, test,3, no_probe,12,1,2,1,2,0.3,0.4, left,1,0.3,0.4,0.6,0.7,2.0310555,0, , ,4,38,1,2,1,6,0.5,1
9, test,3, probe,13,4,2,2,4,0.7,0.4, right,2,0.3,0.4,0.6,0.7,1.5473742,1,99.99978638,1.5333237,5,39,2,2,1,6,0.5,1
9, test,3, no_probe,14,2,3,3,2,0.4,0.6, right,2,0.3,0.4,0.6,0.7,0.5270971,0, , ,5,39,1,2,1,6,0.5,1
9, test,3, probe,15,2,1,1,2,0.4,0.3, right,2,0.3,0.4,0.6,0.7,0.7826819,0,99.51141357,1.5666242,5,39,2,2,1,6,0.5,1
9, test,3, no_probe,16,3,4,4,3,0.6,0.7, right,2,0.3,0.4,0.6,0.7,1.6051452,1, , ,6,40,1,2,1,6,0.5,1
9, test,3, probe,17,1,4,1,4,0.3,0.7, left,1,0.3,0.4,0.6,0.7,2.319016,0,99.99981689,1.6499533,6,40,2,2,1,6,0.5,1
9, test,3, no_probe,18,4,1,4,1,0.7,0.3, left,1,0.3,0.4,0.6,0.7,1.5092289,1, , ,7,41,1,3,1,6,0.5,1
9, test,3, no_probe,19,3,2,2,3,0.6,0.4, right,2,0.3,0.4,0.6,0.7,0.6384629,1, , ,8,42,2,3,1,6,0.5,1
9, test,3, probe,20,2,1,2,1,0.4,0.3, left,1,0.3,0.4,0.6,0.7,2.0216209,1,99.99981689,1.6166739,9,43,3,3,1,6,0.5,1
9, test,3, no_probe,21,2,1,1,2,0.4,0.3, right,2,0.3,0.4,0.6,0.7,1.0287805,1, , ,10,44,1,2,1,6,0.5,1
9, test,3, probe,22,3,4,3,4,0.6,0.7, left,1,0.3,0.4,0.6,0.7,0.3291055,1,99.99987793,1.6333218,11,45,2,2,1,6,0.5,1
9, test,3, no_probe,23,3,2,3,2,0.6,0.4, left,1,0.3,0.4,0.6,0.7,0.5302517,1, , ,12,46,1,2,1,6,0.5,1
9, test,3, probe,24,4,2,2,4,0.7,0.4, right,2,0.3,0.4,0.6,0.7,2.8581726,0,99.99981689,1.4499495,12,46,2,2,1,6,0.5,1
9, test,3, no_probe,25,3,2,2,3,0.6,0.4, right,2,0.3,0.4,0.6,0.7,0.6384403,0, , ,12,46,1,2,1,6,0.5,1
9, test,4, no_probe,1,4,2,2,4,0.7,0.4, right,2,0.3,0.4,0.6,0.7,0.4838731,1, , ,1,47,1,2,1,6,0.5,1
9, test,4, probe,2,4,3,3,4,0.7,0.6, right,2,0.3,0.4,0.6,0.7,1.2270867,1,99.99972534,1.700015,2,48,2,2,1,6,0.5,1
9, test,4, no_probe,3,3,1,3,1,0.6,0.3, left,1,0.3,0.4,0.6,0.7,1.3425503,0, , ,2,48,1,2,1,6,0.5,1
9, test,4, probe,4,4,2,4,2,0.7,0.4, left,1,0.3,0.4,0.6,0.7,2.4733132,1,99.99975586,1.5333444,3,49,2,2,1,6,0.5,1
9, test,4, no_probe,5,2,1,2,1,0.4,0.3, left,1,0.3,0.4,0.6,0.7,2.2467537,0, , ,3,49,1,2,1,6,0.5,1
9, test,4, probe,6,4,3,4,3,0.7,0.6, left,1,0.3,0.4,0.6,0.7,1.932989,1,99.99978638,1.5833159,4,50,2,2,1,6,0.5,1
9, test,4, no_probe,7,4,2,2,4,0.7,0.4, right,2,0.3,0.4,0.6,0.7,0.3640746,0, , ,4,50,1,3,1,6,0.5,1
9, test,4, no_probe,8,4,3,4,3,0.7,0.6, left,1,0.3,0.4,0.6,0.7,0.5355373,1, , ,5,51,2,3,1,6,0.5,1
9, test,4, probe,9,4,3,3,4,0.7,0.6, right,2,0.3,0.4,0.6,0.7,0.3710151,1,99.99975586,1.7832885,6,52,3,3,1,6,0.5,1
9, test,4, no_probe,10,4,2,4,2,0.7,0.4, left,1,0.3,0.4,0.6,0.7,0.4585803,1, , ,7,53,1,2,1,6,0.5,1
9, test,4, probe,11,4,1,4,1,0.7,0.3, left,1,0.3,0.4,0.6,0.7,0.4412686,1,99.99981689,1.6500198,8,54,2,2,1,6,0.5,1
9, test,4, no_probe,12,2,3,3,2,0.4,0.6, right,2,0.3,0.4,0.6,0.7,2.0703782,1, , ,9,55,1,3,1,6,0.5,1
9, test,4, no_probe,13,1,3,3,1,0.3,0.6, right,2,0.3,0.4,0.6,0.7,1.2767429,1, , ,10,56,2,3,1,6,0.5,1
9, test,4, probe,14,4,1,1,4,0.7,0.3, right,2,0.3,0.4,0.6,0.7,0.5557443,1,99.99978638,1.483286,11,57,3,3,1,6,0.5,1
9, test,4, no_probe,15,4,1,4,1,0.7,0.3, left,1,0.3,0.4,0.6,0.7,0.326905,0, , ,11,57,1,3,1,6,0.5,1
9, test,4, no_probe,16,2,3,3,2,0.4,0.6, right,2,0.3,0.4,0.6,0.7,0.9778517,1, , ,12,58,2,3,1,6,0.5,1
9, test,4, probe,17,4,3,3,4,0.7,0.6, right,2,0.3,0.4,0.6,0.7,0.4455046,0,99.99975586,1.7166263,12,58,3,3,1,6,0.5,1
9, test,4, no_probe,18,2,1,1,2,0.4,0.3, right,2,0.3,0.4,0.6,0.7,0.9595207,1, , ,13,59,1,2,1,6,0.5,1
9, test,4, probe,19,2,1,2,1,0.4,0.3, left,1,0.3,0.4,0.6,0.7,0.7469893,1,99.99978638,1.6333086,14,60,2,2,1,6,0.5,1
9, test,4, no_probe,20,2,3,2,3,0.4,0.6, left,1,0.3,0.4,0.6,0.7,1.7277589,0, , ,14,60,1,3,1,6,0.5,1
9, test,4, no_probe,21,2,3,2,3,0.4,0.6, left,1,0.3,0.4,0.6,0.7,0.7388815,0, , ,14,60,2,3,1,6,0.5,1
9, test,4, probe,22,4,2,4,2,0.7,0.4, left,1,0.3,0.4,0.6,0.7,0.7192461,1,99.99978638,1.4499342,15,61,3,3,1,6,0.5,1
9, test,4, no_probe,23,2,1,1,2,0.4,0.3, right,2,0.3,0.4,0.6,0.7,1.0679603,1, , ,16,62,1,2,1,6,0.5,1
9, test,4, probe,24,4,1,1,4,0.7,0.3, right,2,0.3,0.4,0.6,0.7,0.5398716,0,99.88110352,1.4833205,16,62,2,2,1,6,0.5,1
9, test,4, no_probe,25,2,3,3,2,0.4,0.6, right,2,0.3,0.4,0.6,0.7,1.7066566,0, , ,16,62,1,3,1,6,0.5,1
9, test,5, no_probe,1,4,1,4,1,0.7,0.3, left,1,0.3,0.4,0.6,0.7,1.1332438,1, , ,1,63,1,2,1,6,0.5,1
9, test,5, probe,2,4,3,3,4,0.7,0.6, right,2,0.3,0.4,0.6,0.7,1.7847641,1,99.99972534,1.6833065,2,64,2,2,1,6,0.5,1
9, test,5, no_probe,3,4,3,4,3,0.7,0.6, left,1,0.3,0.4,0.6,0.7,0.6378137,0, , ,2,64,1,3,1,6,0.5,1
9, test,5, no_probe,4,4,2,4,2,0.7,0.4, left,1,0.3,0.4,0.6,0.7,0.6899415,1, , ,3,65,2,3,1,6,0.5,1
9, test,5, probe,5,3,2,2,3,0.6,0.4, right,2,0.3,0.4,0.6,0.7,0.9774233,1,99.99981689,1.4666259,4,66,3,3,1,6,0.5,1
9, test,5, no_probe,6,3,4,3,4,0.6,0.7, left,1,0.3,0.4,0.6,0.7,0.4723315,1, , ,5,67,1,3,1,6,0.5,1
9, test,5, no_probe,7,4,2,4,2,0.7,0.4, left,1,0.3,0.4,0.6,0.7,0.6860236,0, , ,5,67,2,3,1,6,0.5,1
9, test,5, probe,8,3,1,3,1,0.6,0.3, left,1,0.3,0.4,0.6,0.7,1.5405994,1,99.99981689,1.4666281,6,68,3,3,1,6,0.5,1
9, test,5, no_probe,9,4,1,1,4,0.7,0.3, right,2,0.3,0.4,0.6,0.7,1.1604243,1, , ,7,69,1,2,1,6,0.5,1
9, test,5, probe,10,2,4,4,2,0.4,0.7, right,2,0.3,0.4,0.6,0.7,1.1218688,0,99.99981689,1.4999274,7,69,2,2,1,6,0.5,1
9, test,5, no_probe,11,3,4,3,4,0.6,0.7, left,1,0.3,0.4,0.6,0.7,1.7542083,1, , ,8,70,1,2,1,6,0.5,1
9, test,5, probe,12,4,2,4,2,0.7,0.4, left,1,0.3,0.4,0.6,0.7,1.5656002,0,99.99984741,2.0833365,8,70,2,2,1,6,0.5,1
9, test,5, no_probe,13,2,1,1,2,0.4,0.3, right,2,0.3,0.4,0.6,0.7,1.9114548,0, , ,8,70,1,2,1,6,0.5,1
9, test,5, probe,14,3,2,2,3,0.6,0.4, right,2,0.3,0.4,0.6,0.7,1.5648883,1,99.99975586,1.54993,9,71,2,2,1,6,0.5,1
9, test,5, no_probe,15,4,1,4,1,0.7,0.3, left,1,0.3,0.4,0.6,0.7,4.4077907,1, , ,10,72,1,3,1,6,0.5,1
9, test,5, no_probe,16,3,1,1,3,0.6,0.3, right,2,0.3,0.4,0.6,0.7,0.9891726,1, , ,11,73,2,3,1,6,0.5,1
9, test,5, probe,17,3,1,1,3,0.6,0.3, right,2,0.3,0.4,0.6,0.7,0.4122468,0,99.99972534,1.6333183,11,73,3,3,1,6,0.5,1
9, test,5, no_probe,18,3,4,3,4,0.6,0.7, left,1,0.3,0.4,0.6,0.7,0.4616808,0, , ,11,73,1,3,1,6,0.5,1
9, test,5, no_probe,19,3,1,3,1,0.6,0.3, left,1,0.3,0.4,0.6,0.7,0.6039421,1, , ,12,74,2,3,1,6,0.5,1
9, test,5, probe,20,2,4,4,2,0.4,0.7, right,2,0.3,0.4,0.6,0.7,2.1225064,1,99.99975586,1.4166655,13,75,3,3,1,6,0.5,1
9, test,5, no_probe,21,1,3,1,3,0.3,0.6, left,1,0.3,0.4,0.6,0.7,1.2839917,0, , ,13,75,1,3,1,6,0.5,1
9, test,5, no_probe,22,4,1,4,1,0.7,0.3, left,1,0.3,0.4,0.6,0.7,1.3941172,0, , ,13,75,2,3,1,6,0.5,1
9, test,5, probe,23,3,4,4,3,0.6,0.7, right,2,0.3,0.4,0.6,0.7,2.3120442,1,99.99978638,1.5166136,14,76,3,3,1,6,0.5,1
9, test,5, no_probe,24,4,2,4,2,0.7,0.4, left,1,0.3,0.4,0.6,0.7,3.0709687,1, , ,15,77,1,2,1,6,0.5,1
9, test,5, probe,25,3,4,4,3,0.6,0.7, right,2,0.3,0.4,0.6,0.7,1.8299372,0,99.99981689,1.6999163,15,77,2,2,1,6,0.5,1
9, test,6, no_probe,1,3,2,3,2,0.6,0.4, left,1,0.3,0.4,0.6,0.7,0.9710316,1, , ,1,78,1,3,1,6,0.5,1
9, test,6, no_probe,2,3,2,2,3,0.6,0.4, right,2,0.3,0.4,0.6,0.7,1.0420535,1, , ,2,79,2,3,1,6,0.5,1
9, test,6, probe,3,3,1,1,3,0.6,0.3, right,2,0.3,0.4,0.6,0.7,1.4227367,1,99.99981689,1.5662179,3,80,3,3,1,6,0.5,1
9, test,6, no_probe,4,3,4,4,3,0.6,0.7, right,2,0.3,0.4,0.6,0.7,0.7601363,1, , ,4,81,1,2,1,6,0.5,1
9, test,6, probe,5,3,4,3,4,0.6,0.7, left,1,0.3,0.4,0.6,0.7,1.1071133,1,99.99978638,1.6666637,5,82,2,2,1,6,0.5,1
9, test,6, no_probe,6,3,2,2,3,0.6,0.4, right,2,0.3,0.4,0.6,0.7,2.0520626,1, , ,6,83,1,3,1,6,0.5,1
9, test,6, no_probe,7,1,3,3,1,0.3,0.6, right,2,0.3,0.4,0.6,0.7,1.9185669,0, , ,6,83,2,3,1,6,0.5,1
9, test,6, probe,8,3,2,3,2,0.6,0.4, left,1,0.3,0.4,0.6,0.7,0.560118,1,99.99978638,1.5666567,7,84,3,3,1,6,0.5,1
9, test,6, no_probe,9,1,4,1,4,0.3,0.7, left,1,0.3,0.4,0.6,0.7,1.5919053,0, , ,7,84,1,3,1,6,0.5,1
9, test,6, no_probe,10,1,2,1,2,0.3,0.4, left,1,0.3,0.4,0.6,0.7,1.8928351,0, , ,7,84,2,3,1,6,0.5,1
9, test,6, probe,11,4,2,4,2,0.7,0.4, left,1,0.3,0.4,0.6,0.7,1.3002016,1,97.64190674,1.2999936,8,85,3,3,1,6,0.5,1
9, test,6, no_probe,12,3,2,2,3,0.6,0.4, right,2,0.3,0.4,0.6,0.7,0.9282439,0, , ,8,85,1,2,1,6,0.5,1
9, test,6, probe,13,4,2,2,4,0.7,0.4, right,2,0.3,0.4,0.6,0.7,1.1122884,0,99.99981689,1.5166705,8,85,2,2,1,6,0.5,1
9, test,6, no_probe,14,2,4,2,4,0.4,0.7, left,1,0.3,0.4,0.6,0.7,1.9512516,0, , ,8,85,1,2,1,6,0.5,1
9, test,6, probe,15,3,4,3,4,0.6,0.7, left,1,0.3,0.4,0.6,0.7,0.6342183,1,99.99978638,1.2833044,9,86,2,2,1,6,0.5,1
9, test,6, no_probe,16,2,1,1,2,0.4,0.3, right,2,0.3,0.4,0.6,0.7,2.1290502,0, , ,9,86,1,3,1,6,0.5,1
9, test,6, no_probe,17,2,4,4,2,0.4,0.7, right,2,0.3,0.4,0.6,0.7,0.7090713,0, , ,9,86,2,3,1,6,0.5,1
9, test,6, probe,18,3,1,3,1,0.6,0.3, left,1,0.3,0.4,0.6,0.7,0.7836829,1,50.13143921,0.9833077,10,87,3,3,1,6,0.5,1
9, test,6, no_probe,19,2,4,2,4,0.4,0.7, left,1,0.3,0.4,0.6,0.7,2.1835343,0, , ,10,87,1,2,1,6,0.5,1
9, test,6, probe,20,3,1,1,3,0.6,0.3, right,2,0.3,0.4,0.6,0.7,0.6415054,1,51.96179199,3.0499601,11,88,2,2,1,6,0.5,1
9, test,6, no_probe,21,4,1,4,1,0.7,0.3, left,1,0.3,0.4,0.6,0.7,1.4752755,0, , ,11,88,1,2,1,6,0.5,1
9, test,6, probe,22,2,1,2,1,0.4,0.3, left,1,0.3,0.4,0.6,0.7,1.254651,1,49.99752808,1.3499675,12,89,2,2,1,6,0.5,1
9, test,6, no_probe,23,2,4,4,2,0.4,0.7, right,2,0.3,0.4,0.6,0.7,3.7568948,0, , ,12,89,1,3,1,6,0.5,1
9, test,6, no_probe,24,4,2,2,4,0.7,0.4, right,2,0.3,0.4,0.6,0.7,1.7892349,0, , ,12,89,2,3,1,6,0.5,1
9, test,6, probe,25,3,4,3,4,0.6,0.7, left,1,0.3,0.4,0.6,0.7,0.478869,1,49.99847412,0.8333324,13,90,3,3,1,6,0.5,1
9, test,7, no_probe,1,4,3,3,4,0.7,0.6, right,2,0.3,0.4,0.6,0.7,1.329568,1, , ,1,91,1,3,1,6,0.5,1
9, test,7, no_probe,2,4,3,3,4,0.7,0.6, right,2,0.3,0.4,0.6,0.7,1.2567095,0, , ,1,91,2,3,1,6,0.5,1
9, test,7, probe,3,1,3,1,3,0.3,0.6, left,1,0.3,0.4,0.6,0.7,1.1683077,1,99.99981689,1.6662547,2,92,3,3,1,6,0.5,1
9, test,7, no_probe,4,4,1,4,1,0.7,0.3, left,1,0.3,0.4,0.6,0.7,0.8347018,0, , ,2,92,1,2,1,6,0.5,1
9, test,7, probe,5,4,1,4,1,0.7,0.3, left,1,0.3,0.4,0.6,0.7,1.2757235,1,99.99975586,1.4166175,3,93,2,2,1,6,0.5,1
9, test,7, no_probe,6,4,3,4,3,0.7,0.6, left,1,0.3,0.4,0.6,0.7,1.8327694,1, , ,4,94,1,2,1,6,0.5,1
9, test,7, probe,7,1,2,1,2,0.3,0.4, left,1,0.3,0.4,0.6,0.7,2.3005518,0,99.99978638,1.2999961,4,94,2,2,1,6,0.5,1
9, test,7, no_probe,8,3,2,3,2,0.6,0.4, left,1,0.3,0.4,0.6,0.7,1.1916311,0, , ,4,94,1,3,1,6,0.5,1
9, test,7, no_probe,9,4,1,4,1,0.7,0.3, left,1,0.3,0.4,0.6,0.7,2.7110648,1, , ,5,95,2,3,1,6,0.5,1
9, test,7, probe,10,1,4,4,1,0.3,0.7, right,2,0.3,0.4,0.6,0.7,0.4486714,1,99.99981689,1.3999586,6,96,3,3,1,6,0.5,1
9, test,7, no_probe,11,2,1,2,1,0.4,0.3, left,1,0.3,0.4,0.6,0.7,1.3056029,1, , ,7,97,1,3,1,6,0.5,1
9, test,7, no_probe,12,4,2,4,2,0.7,0.4, left,1,0.3,0.4,0.6,0.7,2.1116273,1, , ,8,98,2,3,1,6,0.5,1
9, test,7, probe,13,3,2,3,2,0.6,0.4, left,1,0.3,0.4,0.6,0.7,2.5031911,1,99.99978638,1.7500293,9,99,3,3,1,6,0.5,1
9, test,7, no_probe,14,2,3,3,2,0.4,0.6, right,2,0.3,0.4,0.6,0.7,0.7307696,1, , ,10,100,1,2,1,6,0.5,1
9, test,7, probe,15,4,1,1,4,0.7,0.3, right,2,0.3,0.4,0.6,0.7,2.1905706,1,99.99978638,1.6332798,11,101,2,2,1,6,0.5,1
9, test,7, no_probe,16,2,3,3,2,0.4,0.6, right,2,0.3,0.4,0.6,0.7,3.3978782,1, , ,12,102,1,2,1,6,0.5,1
9, test,7, probe,17,2,1,2,1,0.4,0.3, left,1,0.3,0.4,0.6,0.7,1.5220968,1,99.99981689,1.3166271,13,103,2,2,1,6,0.5,1
9, test,7, no_probe,18,3,4,3,4,0.6,0.7, left,1,0.3,0.4,0.6,0.7,2.2011603,0, , ,13,103,1,3,1,6,0.5,1
9, test,7, no_probe,19,3,1,1,3,0.6,0.3, right,2,0.3,0.4,0.6,0.7,2.8950938,0, , ,13,103,2,3,1,6,0.5,1
9, test,7, probe,20,3,1,3,1,0.6,0.3, left,1,0.3,0.4,0.6,0.7,2.8479868,0,99.99984741,1.5500114,13,103,3,3,1,6,0.5,1
9, test,7, no_probe,21,1,2,2,1,0.3,0.4, right,2,0.3,0.4,0.6,0.7,5.6283316,0, , ,13,103,1,2,1,6,0.5,1
9, test,7, probe,22,1,2,1,2,0.3,0.4, left,1,0.3,0.4,0.6,0.7,3.351922,1,99.99975586,1.7333378,14,104,2,2,1,6,0.5,1
9, test,7, no_probe,23,4,3,3,4,0.7,0.6, right,2,0.3,0.4,0.6,0.7,1.364721,1, , ,15,105,1,3,1,6,0.5,1
9, test,7, no_probe,24,1,4,1,4,0.3,0.7, left,1,0.3,0.4,0.6,0.7,2.224061,0, , ,15,105,2,3,1,6,0.5,1
9, test,7, probe,25,2,3,3,2,0.4,0.6, right,2,0.3,0.4,0.6,0.7,1.620688,0,49.99871826,0.699979,15,105,3,3,1,6,0.5,1
9, test,8, no_probe,1,1,4,4,1,0.3,0.7, right,2,0.3,0.4,0.6,0.7,1.1369759,0, , ,0,105,1,2,1,6,0.5,1
9, test,8, probe,2,2,4,2,4,0.4,0.7, left,1,0.3,0.4,0.6,0.7,2.6915933,0,49.9982605,0.9499805,0,105,2,2,1,6,0.5,1
9, test,8, no_probe,3,3,1,3,1,0.6,0.3, left,1,0.3,0.4,0.6,0.7,1.0719554,0, , ,0,105,1,3,1,6,0.5,1
9, test,8, no_probe,4,4,3,4,3,0.7,0.6, left,1,0.3,0.4,0.6,0.7,1.638054,1, , ,1,106,2,3,1,6,0.5,1
9, test,8, probe,5,4,3,4,3,0.7,0.6, left,1,0.3,0.4,0.6,0.7,0.4379549,0,99.99984741,1.8166261,1,106,3,3,1,6,0.5,1
9, test,8, no_probe,6,3,2,3,2,0.6,0.4, left,1,0.3,0.4,0.6,0.7,2.359459,1, , ,2,107,1,2,1,6,0.5,1
9, test,8, abort_trial,7,,,,,,,,,,,,,,,,,,,,,,,,
9, test,8, probe,8,1,2,2,1,0.3,0.4, right,2,0.3,0.4,0.6,0.7,0.7617187,0,51.68249512,2.4333129,2,107,2,2,1,6,0.5,1
9, test,8, no_probe,9,1,4,1,4,0.3,0.7, left,1,0.3,0.4,0.6,0.7,0.9731688,1, , ,3,108,1,2,1,6,0.5,1
9, test,8, probe,10,4,1,4,1,0.7,0.3, left,1,0.3,0.4,0.6,0.7,1.1640035,1,49.9979248,1.1333229,4,109,2,2,1,6,0.5,1
9, test,8, no_probe,11,4,1,1,4,0.7,0.3, right,2,0.3,0.4,0.6,0.7,1.197055,1, , ,5,110,1,3,1,6,0.5,1
9, test,8, no_probe,12,2,3,3,2,0.4,0.6, right,2,0.3,0.4,0.6,0.7,1.6743168,1, , ,6,111,2,3,1,6,0.5,1
9, test,8, probe,13,1,2,1,2,0.3,0.4, left,1,0.3,0.4,0.6,0.7,1.5995727,0,49.99737549,1.4333292,6,111,3,3,1,6,0.5,1
9, test,8, no_probe,14,2,3,3,2,0.4,0.6, right,2,0.3,0.4,0.6,0.7,2.2471545,1, , ,7,112,1,3,1,6,0.5,1
9, test,8, no_probe,15,2,1,1,2,0.4,0.3, right,2,0.3,0.4,0.6,0.7,1.3501715,0, , ,7,112,2,3,1,6,0.5,1
9, test,8, probe,16,2,1,2,1,0.4,0.3, left,1,0.3,0.4,0.6,0.7,1.6265752,0,49.99914551,0.4666673,7,112,3,3,1,6,0.5,1
9, test,8, no_probe,17,3,4,3,4,0.6,0.7, left,1,0.3,0.4,0.6,0.7,1.8016761,1, , ,8,113,1,3,1,6,0.5,1
9, test,8, no_probe,18,2,1,2,1,0.4,0.3, left,1,0.3,0.4,0.6,0.7,1.7206601,1, , ,9,114,2,3,1,6,0.5,1
9, test,8, probe,19,4,1,1,4,0.7,0.3, right,2,0.3,0.4,0.6,0.7,2.3735433,1,70.98425293,1.5166802,10,115,3,3,1,6,0.5,1
9, test,8, no_probe,20,4,3,3,4,0.7,0.6, right,2,0.3,0.4,0.6,0.7,1.6085278,0, , ,10,115,1,2,1,6,0.5,1
9, test,8, probe,21,1,4,4,1,0.3,0.7, right,2,0.3,0.4,0.6,0.7,1.9188832,0,49.99734497,1.4499733,10,115,2,2,1,6,0.5,1
9, test,8, no_probe,22,4,1,4,1,0.7,0.3, left,1,0.3,0.4,0.6,0.7,0.7913611,1, , ,11,116,1,2,1,6,0.5,1
9, test,8, probe,23,1,3,3,1,0.3,0.6, right,2,0.3,0.4,0.6,0.7,1.9591947,1,49.99862671,0.7500039,12,117,2,2,1,6,0.5,1
9, test,8, no_probe,24,1,4,4,1,0.3,0.7, right,2,0.3,0.4,0.6,0.7,1.3017997,1, , ,13,118,1,3,1,6,0.5,1
9, test,8, no_probe,25,1,3,3,1,0.3,0.6, right,2,0.3,0.4,0.6,0.7,1.1401519,0, , ,13,118,2,3,1,6,0.5,1
