subject, block_type, block, thought probe, trial, chosen, unchosen, offer_left_image, offer_right_image, exp_value_chosen, exp_value_unchosen, choice_location, choice_key, exp_value1, exp_value2, exp_value3, exp_value4, RT, reward, vas, RT_vas, coins_per_block, coins_per_task, count_to_prob, ntrial_to_prob, ITI_duration,RT_deadline,choice_feedback_duration,outcome_duration
65,practice,1, no_probe,1,2,3,3,2,0.4,0.6, right,2,0.3,0.4,0.6,0.7,0.7075461,0, , ,0,0,1,3,1,6,0.5,1
65,practice,1, no_probe,2,1,3,3,1,0.3,0.6, right,2,0.3,0.4,0.6,0.7,0.593695,0, , ,0,0,2,3,1,6,0.5,1
65,practice,1, probe,3,1,4,1,4,0.3,0.7, left,1,0.3,0.4,0.6,0.7,0.7658572,1,62.45715332,4.299698,1,1,3,3,1,6,0.5,1
65,practice,1, no_probe,4,2,4,2,4,0.4,0.7, left,1,0.3,0.4,0.6,0.7,0.6082982,1, , ,2,2,1,3,1,6,0.5,1
65,practice,1, no_probe,5,2,1,2,1,0.4,0.3, left,1,0.3,0.4,0.6,0.7,0.5419261,0, , ,2,2,2,3,1,6,0.5,1
65,practice,1, probe,6,4,3,4,3,0.7,0.6, left,1,0.3,0.4,0.6,0.7,0.6419673,1,71.70175171,2.233303,3,3,3,3,1,6,0.5,1
65, test,1, no_probe,1,2,1,1,2,0.4,0.3, right,2,0.3,0.4,0.6,0.7,0.8580424,1, , ,1,4,1,2,1,6,0.5,1
65, test,1, probe,2,2,3,3,2,0.4,0.6, right,2,0.3,0.4,0.6,0.7,0.3973432,0,68.3237915,3.0666325,1,4,2,2,1,6,0.5,1
65, test,1, no_probe,3,1,4,4,1,0.3,0.7, right,2,0.3,0.4,0.6,0.7,0.609983,0, , ,1,4,1,2,1,6,0.5,1
65, test,1, probe,4,1,3,1,3,0.3,0.6, left,1,0.3,0.4,0.6,0.7,0.5401644,0,60.21237183,2.3166106,1,4,2,2,1,6,0.5,1
65, test,1, no_probe,5,2,4,4,2,0.4,0.7, right,2,0.3,0.4,0.6,0.7,0.833395,1, , ,2,5,1,2,1,6,0.5,1
65, test,1, probe,6,4,1,4,1,0.7,0.3, left,1,0.3,0.4,0.6,0.7,1.0307967,1,75.15924072,2.9332675,3,6,2,2,1,6,0.5,1
65, test,1, no_probe,7,2,4,4,2,0.4,0.7, right,2,0.3,0.4,0.6,0.7,0.9594608,0, , ,3,6,1,3,1,6,0.5,1
65, test,1, no_probe,8,3,4,3,4,0.6,0.7, left,1,0.3,0.4,0.6,0.7,0.8631613,1, , ,4,7,2,3,1,6,0.5,1
65, test,1, probe,9,4,1,4,1,0.7,0.3, left,1,0.3,0.4,0.6,0.7,0.5933167,1,70.70101929,2.2333127,5,8,3,3,1,6,0.5,1
65, test,1, no_probe,10,1,4,4,1,0.3,0.7, right,2,0.3,0.4,0.6,0.7,0.645579,0, , ,5,8,1,3,1,6,0.5,1
65, test,1, no_probe,11,3,1,1,3,0.6,0.3, right,2,0.3,0.4,0.6,0.7,0.6260466,1, , ,6,9,2,3,1,6,0.5,1
65, test,1, probe,12,4,2,4,2,0.7,0.4, left,1,0.3,0.4,0.6,0.7,0.9056567,0,68.63171387,2.9499611,6,9,3,3,1,6,0.5,1
65, test,1, no_probe,13,3,1,1,3,0.6,0.3, right,2,0.3,0.4,0.6,0.7,0.8966714,1, , ,7,10,1,2,1,6,0.5,1
65, test,1, probe,14,3,1,1,3,0.6,0.3, right,2,0.3,0.4,0.6,0.7,0.5246864,1,68.19140625,2.2829939,8,11,2,2,1,6,0.5,1
65, test,1, no_probe,15,3,1,1,3,0.6,0.3, right,2,0.3,0.4,0.6,0.7,0.4822109,1, , ,9,12,1,3,1,6,0.5,1
65, test,1, no_probe,16,4,2,2,4,0.7,0.4, right,2,0.3,0.4,0.6,0.7,1.4401481,1, , ,10,13,2,3,1,6,0.5,1
65, test,1, probe,17,4,2,4,2,0.7,0.4, left,1,0.3,0.4,0.6,0.7,1.3642133,0,68.15737915,2.7499989,10,13,3,3,1,6,0.5,1
65, test,1, no_probe,18,3,1,3,1,0.6,0.3, left,1,0.3,0.4,0.6,0.7,0.7197782,1, , ,11,14,1,3,1,6,0.5,1
65, test,1, no_probe,19,4,1,1,4,0.7,0.3, right,2,0.3,0.4,0.6,0.7,0.7708165,1, , ,12,15,2,3,1,6,0.5,1
65, test,1, probe,20,1,4,4,1,0.3,0.7, right,2,0.3,0.4,0.6,0.7,1.0695367,0,67.11837769,1.666586,12,15,3,3,1,6,0.5,1
65, test,1, no_probe,21,3,2,3,2,0.6,0.4, left,1,0.3,0.4,0.6,0.7,0.6522319,1, , ,13,16,1,2,1,6,0.5,1
65, test,1, probe,22,4,1,4,1,0.7,0.3, left,1,0.3,0.4,0.6,0.7,0.8321682,1,61.52963257,3.0166283,14,17,2,2,1,6,0.5,1
65, test,1, no_probe,23,3,4,3,4,0.6,0.7, left,1,0.3,0.4,0.6,0.7,0.8258398,0, , ,14,17,1,2,1,6,0.5,1
65, test,1, probe,24,4,2,2,4,0.7,0.4, right,2,0.3,0.4,0.6,0.7,0.4869431,1,62.41079712,2.3833251,15,18,2,2,1,6,0.5,1
65, test,1, no_probe,25,2,1,1,2,0.4,0.3, right,2,0.3,0.4,0.6,0.7,0.8325963,1, , ,16,19,1,3,1,6,0.5,1
65, test,2, no_probe,1,4,1,1,4,0.7,0.3, right,2,0.3,0.4,0.6,0.7,0.209084,0, , ,0,19,1,2,1,6,0.5,1
65, test,2, probe,2,2,3,3,2,0.4,0.6, right,2,0.3,0.4,0.6,0.7,0.9470228,0,67.66516113,1.7666567,0,19,2,2,1,6,0.5,1
65, test,2, no_probe,3,4,2,4,2,0.7,0.4, left,1,0.3,0.4,0.6,0.7,1.4213612,1, , ,1,20,1,3,1,6,0.5,1
65, test,2, no_probe,4,3,2,3,2,0.6,0.4, left,1,0.3,0.4,0.6,0.7,1.4343399,0, , ,1,20,2,3,1,6,0.5,1
65, test,2, probe,5,2,1,1,2,0.4,0.3, right,2,0.3,0.4,0.6,0.7,1.0195345,1,67.17214966,1.4999657,2,21,3,3,1,6,0.5,1
65, test,2, no_probe,6,4,3,3,4,0.7,0.6, right,2,0.3,0.4,0.6,0.7,0.7418957,1, , ,3,22,1,2,1,6,0.5,1
65, test,2, probe,7,3,2,3,2,0.6,0.4, left,1,0.3,0.4,0.6,0.7,0.7509762,1,68.54721069,3.0499609,4,23,2,2,1,6,0.5,1
65, test,2, no_probe,8,4,2,2,4,0.7,0.4, right,2,0.3,0.4,0.6,0.7,0.454232,0, , ,4,23,1,3,1,6,0.5,1
65, test,2, no_probe,9,3,2,3,2,0.6,0.4, left,1,0.3,0.4,0.6,0.7,0.513877,1, , ,5,24,2,3,1,6,0.5,1
65, test,2, probe,10,1,2,1,2,0.3,0.4, left,1,0.3,0.4,0.6,0.7,0.313957,0,53.56661987,4.9665995,5,24,3,3,1,6,0.5,1
65, test,2, no_probe,11,2,1,1,2,0.4,0.3, right,2,0.3,0.4,0.6,0.7,0.6111543,0, , ,5,24,1,3,1,6,0.5,1
65, test,2, no_probe,12,3,4,3,4,0.6,0.7, left,1,0.3,0.4,0.6,0.7,0.55109,0, , ,5,24,2,3,1,6,0.5,1
65, test,2, probe,13,1,3,3,1,0.3,0.6, right,2,0.3,0.4,0.6,0.7,0.6147861,0,40.9102478,2.18329,5,24,3,3,1,6,0.5,1
65, test,2, no_probe,14,3,1,1,3,0.6,0.3, right,2,0.3,0.4,0.6,0.7,0.7873253,1, , ,6,25,1,3,1,6,0.5,1
65, test,2, no_probe,15,4,3,3,4,0.7,0.6, right,2,0.3,0.4,0.6,0.7,1.5540364,1, , ,7,26,2,3,1,6,0.5,1
65, test,2, probe,16,2,4,2,4,0.4,0.7, left,1,0.3,0.4,0.6,0.7,0.8735585,0,58.73492432,1.2500142,7,26,3,3,1,6,0.5,1
65, test,2, no_probe,17,3,1,3,1,0.6,0.3, left,1,0.3,0.4,0.6,0.7,1.227508,0, , ,7,26,1,2,1,6,0.5,1
65, test,2, probe,18,1,4,1,4,0.3,0.7, left,1,0.3,0.4,0.6,0.7,0.5485685,0,49.99642944,1.9499258,7,26,2,2,1,6,0.5,1
65, test,2, no_probe,19,1,4,4,1,0.3,0.7, right,2,0.3,0.4,0.6,0.7,0.4808754,0, , ,7,26,1,3,1,6,0.5,1
65, test,2, no_probe,20,3,1,1,3,0.6,0.3, right,2,0.3,0.4,0.6,0.7,0.8864707,1, , ,8,27,2,3,1,6,0.5,1
65, test,2, probe,21,3,4,3,4,0.6,0.7, left,1,0.3,0.4,0.6,0.7,1.6851797,1,55.93487549,1.5333178,9,28,3,3,1,6,0.5,1
65, test,2, no_probe,22,4,1,4,1,0.7,0.3, left,1,0.3,0.4,0.6,0.7,0.6167918,1, , ,10,29,1,2,1,6,0.5,1
65, test,2, probe,23,4,3,4,3,0.7,0.6, left,1,0.3,0.4,0.6,0.7,0.9260313,1,57.98287964,1.0173836,11,30,2,2,1,6,0.5,1
65, test,2, no_probe,24,2,3,2,3,0.4,0.6, left,1,0.3,0.4,0.6,0.7,1.0835596,0, , ,11,30,1,3,1,6,0.5,1
65, test,2, no_probe,25,4,1,4,1,0.7,0.3, left,1,0.3,0.4,0.6,0.7,0.6139911,1, , ,12,31,2,3,1,6,0.5,1
65, test,3, no_probe,1,4,2,2,4,0.7,0.4, right,2,0.3,0.4,0.6,0.7,0.476308,1, , ,1,32,1,2,1,6,0.5,1
65, test,3, probe,2,4,3,4,3,0.7,0.6, left,1,0.3,0.4,0.6,0.7,1.1639136,1,67.67611694,1.9499456,2,33,2,2,1,6,0.5,1
65, test,3, no_probe,3,3,1,1,3,0.6,0.3, right,2,0.3,0.4,0.6,0.7,1.915739,1, , ,3,34,1,2,1,6,0.5,1
65, test,3, probe,4,4,2,4,2,0.7,0.4, left,1,0.3,0.4,0.6,0.7,1.5683491,1,68.03231812,2.1166675,4,35,2,2,1,6,0.5,1
65, test,3, no_probe,5,2,1,2,1,0.4,0.3, left,1,0.3,0.4,0.6,0.7,1.476253,1, , ,5,36,1,3,1,6,0.5,1
65, test,3, no_probe,6,4,1,4,1,0.7,0.3, left,1,0.3,0.4,0.6,0.7,0.634739,0, , ,5,36,2,3,1,6,0.5,1
65, test,3, probe,7,4,2,4,2,0.7,0.4, left,1,0.3,0.4,0.6,0.7,0.5760378,0,67.76898193,1.6833274,5,36,3,3,1,6,0.5,1
65, test,3, no_probe,8,4,3,4,3,0.7,0.6, left,1,0.3,0.4,0.6,0.7,0.6127107,1, , ,6,37,1,3,1,6,0.5,1
65, test,3, no_probe,9,4,2,2,4,0.7,0.4, right,2,0.3,0.4,0.6,0.7,0.7448384,0, , ,6,37,2,3,1,6,0.5,1
65, test,3, probe,10,4,3,4,3,0.7,0.6, left,1,0.3,0.4,0.6,0.7,0.5089863,0,42.13778687,2.0833486,6,37,3,3,1,6,0.5,1
65, test,3, no_probe,11,4,3,3,4,0.7,0.6, right,2,0.3,0.4,0.6,0.7,0.8458675,1, , ,7,38,1,3,1,6,0.5,1
65, test,3, no_probe,12,1,2,1,2,0.3,0.4, left,1,0.3,0.4,0.6,0.7,0.8502507,0, , ,7,38,2,3,1,6,0.5,1
65, test,3, probe,13,2,1,2,1,0.4,0.3, left,1,0.3,0.4,0.6,0.7,1.1176836,1,60.25180054,1.2333265,8,39,3,3,1,6,0.5,1
65, test,3, no_probe,14,1,2,1,2,0.3,0.4, left,1,0.3,0.4,0.6,0.7,0.5906316,0, , ,8,39,1,2,1,6,0.5,1
65, test,3, probe,15,4,3,3,4,0.7,0.6, right,2,0.3,0.4,0.6,0.7,0.5652727,1,41.22045898,1.7165621,9,40,2,2,1,6,0.5,1
65, test,3, no_probe,16,4,2,4,2,0.7,0.4, left,1,0.3,0.4,0.6,0.7,0.5134752,1, , ,10,41,1,2,1,6,0.5,1
65, test,3, probe,17,1,2,1,2,0.3,0.4, left,1,0.3,0.4,0.6,0.7,0.8062946,0,48.83874512,2.7166665,10,41,2,2,1,6,0.5,1
65, test,3, no_probe,18,4,1,1,4,0.7,0.3, right,2,0.3,0.4,0.6,0.7,0.4076192,0, , ,10,41,1,2,1,6,0.5,1
65, test,3, probe,19,2,4,2,4,0.4,0.7, left,1,0.3,0.4,0.6,0.7,0.5838521,1,53.52374268,1.7166244,11,42,2,2,1,6,0.5,1
65, test,3, no_probe,20,3,2,3,2,0.6,0.4, left,1,0.3,0.4,0.6,0.7,0.9542926,1, , ,12,43,1,3,1,6,0.5,1
65, test,3, no_probe,21,3,4,3,4,0.6,0.7, left,1,0.3,0.4,0.6,0.7,0.4593366,0, , ,12,43,2,3,1,6,0.5,1
65, test,3, probe,22,3,2,3,2,0.6,0.4, left,1,0.3,0.4,0.6,0.7,0.8890076,0,45.25048828,2.3500052,12,43,3,3,1,6,0.5,1
65, test,3, no_probe,23,3,4,3,4,0.6,0.7, left,1,0.3,0.4,0.6,0.7,0.660945,1, , ,13,44,1,2,1,6,0.5,1
65, test,3, probe,24,1,2,2,1,0.3,0.4, right,2,0.3,0.4,0.6,0.7,0.9804889,0,42.77423096,1.9166371,13,44,2,2,1,6,0.5,1
65, test,3, no_probe,25,3,2,3,2,0.6,0.4, left,1,0.3,0.4,0.6,0.7,0.5326876,0, , ,13,44,1,3,1,6,0.5,1
65, test,4, no_probe,1,3,2,3,2,0.6,0.4, left,1,0.3,0.4,0.6,0.7,0.4226512,1, , ,1,45,1,2,1,6,0.5,1
65, test,4, probe,2,2,4,2,4,0.4,0.7, left,1,0.3,0.4,0.6,0.7,0.7344083,0,61.32608032,2.5999384,1,45,2,2,1,6,0.5,1
65, test,4, no_probe,3,1,2,2,1,0.3,0.4, right,2,0.3,0.4,0.6,0.7,0.8063861,0, , ,1,45,1,2,1,6,0.5,1
65, test,4, probe,4,4,2,2,4,0.7,0.4, right,2,0.3,0.4,0.6,0.7,0.9468107,1,59.68310547,1.2999648,2,46,2,2,1,6,0.5,1
65, test,4, no_probe,5,4,2,4,2,0.7,0.4, left,1,0.3,0.4,0.6,0.7,1.0764546,1, , ,3,47,1,2,1,6,0.5,1
65, test,4, probe,6,1,3,1,3,0.3,0.6, left,1,0.3,0.4,0.6,0.7,0.6839375,0,58.26690674,1.6833268,3,47,2,2,1,6,0.5,1
65, test,4, no_probe,7,1,4,4,1,0.3,0.7, right,2,0.3,0.4,0.6,0.7,0.5098225,1, , ,4,48,1,2,1,6,0.5,1
65, test,4, probe,8,4,2,2,4,0.7,0.4, right,2,0.3,0.4,0.6,0.7,0.6140314,0,49.99710083,1.5832545,4,48,2,2,1,6,0.5,1
65, test,4, no_probe,9,2,3,2,3,0.4,0.6, left,1,0.3,0.4,0.6,0.7,0.4746683,0, , ,4,48,1,2,1,6,0.5,1
65, test,4, probe,10,3,4,3,4,0.6,0.7, left,1,0.3,0.4,0.6,0.7,0.588954,1,56.9145813,1.133309,5,49,2,2,1,6,0.5,1
65, test,4, no_probe,11,3,4,4,3,0.6,0.7, right,2,0.3,0.4,0.6,0.7,0.3774593,1, , ,6,50,1,2,1,6,0.5,1
65, test,4, probe,12,3,1,3,1,0.6,0.3, left,1,0.3,0.4,0.6,0.7,0.4316392,0,57.87335205,1.1666197,6,50,2,2,1,6,0.5,1
65, test,4, no_probe,13,4,2,4,2,0.7,0.4, left,1,0.3,0.4,0.6,0.7,0.9351676,1, , ,7,51,1,2,1,6,0.5,1
65, test,4, probe,14,1,2,2,1,0.3,0.4, right,2,0.3,0.4,0.6,0.7,0.4957325,1,66.13751221,1.3666303,8,52,2,2,1,6,0.5,1
65, test,4, no_probe,15,1,3,1,3,0.3,0.6, left,1,0.3,0.4,0.6,0.7,0.825309,0, , ,8,52,1,2,1,6,0.5,1
65, test,4, probe,16,3,2,2,3,0.6,0.4, right,2,0.3,0.4,0.6,0.7,0.4582727,1,62.18563843,2.3500184,9,53,2,2,1,6,0.5,1
65, test,4, no_probe,17,3,4,4,3,0.6,0.7, right,2,0.3,0.4,0.6,0.7,0.3259869,0, , ,9,53,1,2,1,6,0.5,1
65, test,4, probe,18,2,4,2,4,0.4,0.7, left,1,0.3,0.4,0.6,0.7,0.5147948,0,60.2182312,1.0999891,9,53,2,2,1,6,0.5,1
65, test,4, no_probe,19,3,2,3,2,0.6,0.4, left,1,0.3,0.4,0.6,0.7,0.5251863,1, , ,10,54,1,2,1,6,0.5,1
65, test,4, probe,20,2,1,1,2,0.4,0.3, right,2,0.3,0.4,0.6,0.7,0.3785914,1,65.82299805,1.3666859,11,55,2,2,1,6,0.5,1
65, test,4, no_probe,21,2,4,4,2,0.4,0.7, right,2,0.3,0.4,0.6,0.7,0.5094227,1, , ,12,56,1,3,1,6,0.5,1
65, test,4, no_probe,22,1,2,1,2,0.3,0.4, left,1,0.3,0.4,0.6,0.7,0.9385943,0, , ,12,56,2,3,1,6,0.5,1
65, test,4, probe,23,3,1,1,3,0.6,0.3, right,2,0.3,0.4,0.6,0.7,0.6455459,0,57.40713501,2.2996829,12,56,3,3,1,6,0.5,1
65, test,4, no_probe,24,3,4,4,3,0.6,0.7, right,2,0.3,0.4,0.6,0.7,0.5676814,0, , ,12,56,1,3,1,6,0.5,1
65, test,4, no_probe,25,3,1,3,1,0.6,0.3, left,1,0.3,0.4,0.6,0.7,0.4112964,1, , ,13,57,2,3,1,6,0.5,1
65, test,5, no_probe,1,1,4,4,1,0.3,0.7, right,2,0.3,0.4,0.6,0.7,0.4253253,1, , ,1,58,1,3,1,6,0.5,1
65, test,5, no_probe,2,1,2,1,2,0.3,0.4, left,1,0.3,0.4,0.6,0.7,0.3340015,1, , ,2,59,2,3,1,6,0.5,1
65, test,5, probe,3,4,3,3,4,0.7,0.6, right,2,0.3,0.4,0.6,0.7,0.7745907,0,68.21420288,3.116226,2,59,3,3,1,6,0.5,1
65, test,5, no_probe,4,3,2,3,2,0.6,0.4, left,1,0.3,0.4,0.6,0.7,0.6783879,0, , ,2,59,1,2,1,6,0.5,1
65, test,5, probe,5,1,4,1,4,0.3,0.7, left,1,0.3,0.4,0.6,0.7,0.5686788,0,59.42687988,3.0833187,2,59,2,2,1,6,0.5,1
65, test,5, no_probe,6,1,3,1,3,0.3,0.6, left,1,0.3,0.4,0.6,0.7,0.6797644,1, , ,3,60,1,3,1,6,0.5,1
65, test,5, no_probe,7,1,3,3,1,0.3,0.6, right,2,0.3,0.4,0.6,0.7,0.4448913,1, , ,4,61,2,3,1,6,0.5,1
65, test,5, probe,8,2,4,2,4,0.4,0.7, left,1,0.3,0.4,0.6,0.7,1.079618,1,64.08654785,1.6333129,5,62,3,3,1,6,0.5,1
65, test,5, no_probe,9,1,4,4,1,0.3,0.7, right,2,0.3,0.4,0.6,0.7,0.4959006,1, , ,6,63,1,3,1,6,0.5,1
65, test,5, no_probe,10,1,4,1,4,0.3,0.7, left,1,0.3,0.4,0.6,0.7,0.3284237,0, , ,6,63,2,3,1,6,0.5,1
65, test,5, probe,11,1,4,4,1,0.3,0.7, right,2,0.3,0.4,0.6,0.7,0.3443794,0,66.55807495,1.8499393,6,63,3,3,1,6,0.5,1
65, test,5, no_probe,12,1,3,3,1,0.3,0.6, right,2,0.3,0.4,0.6,0.7,0.3745283,1, , ,7,64,1,2,1,6,0.5,1
65, test,5, probe,13,4,3,3,4,0.7,0.6, right,2,0.3,0.4,0.6,0.7,0.7732175,0,61.26715088,1.499967,7,64,2,2,1,6,0.5,1
65, test,5, no_probe,14,3,4,4,3,0.6,0.7, right,2,0.3,0.4,0.6,0.7,0.849125,1, , ,8,65,1,2,1,6,0.5,1
65, test,5, probe,15,1,4,4,1,0.3,0.7, right,2,0.3,0.4,0.6,0.7,0.4658892,1,70.3039856,2.2332632,9,66,2,2,1,6,0.5,1
65, test,5, no_probe,16,1,3,3,1,0.3,0.6, right,2,0.3,0.4,0.6,0.7,0.3220128,0, , ,9,66,1,2,1,6,0.5,1
65, test,5, probe,17,1,4,4,1,0.3,0.7, right,2,0.3,0.4,0.6,0.7,0.6256279,0,60.92807007,1.6333112,9,66,2,2,1,6,0.5,1
65, test,5, no_probe,18,3,2,2,3,0.6,0.4, right,2,0.3,0.4,0.6,0.7,0.451731,1, , ,10,67,1,2,1,6,0.5,1
65, test,5, probe,19,2,3,2,3,0.4,0.6, left,1,0.3,0.4,0.6,0.7,0.7363104,1,65.53359985,1.5999579,11,68,2,2,1,6,0.5,1
65, test,5, no_probe,20,1,3,3,1,0.3,0.6, right,2,0.3,0.4,0.6,0.7,0.4816205,0, , ,11,68,1,3,1,6,0.5,1
65, test,5, no_probe,21,4,3,4,3,0.7,0.6, left,1,0.3,0.4,0.6,0.7,0.5405284,1, , ,12,69,2,3,1,6,0.5,1
65, test,5, probe,22,1,4,1,4,0.3,0.7, left,1,0.3,0.4,0.6,0.7,0.7244995,0,61.25723267,1.5999641,12,69,3,3,1,6,0.5,1
65, test,5, no_probe,23,1,2,1,2,0.3,0.4, left,1,0.3,0.4,0.6,0.7,0.5628415,0, , ,12,69,1,2,1,6,0.5,1
65, test,5, probe,24,2,4,4,2,0.4,0.7, right,2,0.3,0.4,0.6,0.7,0.9382138,1,68.09158325,1.4499832,13,70,2,2,1,6,0.5,1
65, test,5, no_probe,25,1,2,2,1,0.3,0.4, right,2,0.3,0.4,0.6,0.7,0.462696,1, , ,14,71,1,3,1,6,0.5,1
65, test,6, no_probe,1,2,3,3,2,0.4,0.6, right,2,0.3,0.4,0.6,0.7,0.2152263,0, , ,0,71,1,2,1,6,0.5,1
65, test,6, probe,2,3,1,3,1,0.6,0.3, left,1,0.3,0.4,0.6,0.7,0.3996512,1,63.86340332,1.3333391,1,72,2,2,1,6,0.5,1
65, test,6, no_probe,3,1,4,4,1,0.3,0.7, right,2,0.3,0.4,0.6,0.7,0.8381444,1, , ,2,73,1,2,1,6,0.5,1
65, test,6, probe,4,3,2,3,2,0.6,0.4, left,1,0.3,0.4,0.6,0.7,0.8063872,1,71.72259521,2.1499335,3,74,2,2,1,6,0.5,1
65, test,6, no_probe,5,4,1,4,1,0.7,0.3, left,1,0.3,0.4,0.6,0.7,0.6330484,1, , ,4,75,1,3,1,6,0.5,1
65, test,6, no_probe,6,4,3,3,4,0.7,0.6, right,2,0.3,0.4,0.6,0.7,0.4241342,1, , ,5,76,2,3,1,6,0.5,1
65, test,6, probe,7,4,3,3,4,0.7,0.6, right,2,0.3,0.4,0.6,0.7,0.9100344,1,79.62185669,1.9333235,6,77,3,3,1,6,0.5,1
65, test,6, no_probe,8,3,1,3,1,0.6,0.3, left,1,0.3,0.4,0.6,0.7,0.7797859,0, , ,6,77,1,3,1,6,0.5,1
65, test,6, no_probe,9,1,4,4,1,0.3,0.7, right,2,0.3,0.4,0.6,0.7,0.4474809,0, , ,6,77,2,3,1,6,0.5,1
65, test,6, probe,10,4,2,2,4,0.7,0.4, right,2,0.3,0.4,0.6,0.7,0.7736624,1,66.26828003,1.8167026,7,78,3,3,1,6,0.5,1
65, test,6, no_probe,11,1,3,3,1,0.3,0.6, right,2,0.3,0.4,0.6,0.7,0.6220365,0, , ,7,78,1,2,1,6,0.5,1
65, test,6, probe,12,4,1,1,4,0.7,0.3, right,2,0.3,0.4,0.6,0.7,0.7079405,1,70.57189941,2.7499109,8,79,2,2,1,6,0.5,1
65, test,6, no_probe,13,3,2,3,2,0.6,0.4, left,1,0.3,0.4,0.6,0.7,0.5814302,0, , ,8,79,1,3,1,6,0.5,1
65, test,6, no_probe,14,1,3,3,1,0.3,0.6, right,2,0.3,0.4,0.6,0.7,0.6993647,1, , ,9,80,2,3,1,6,0.5,1
65, test,6, probe,15,2,1,2,1,0.4,0.3, left,1,0.3,0.4,0.6,0.7,0.9250608,0,66.38339233,2.1999847,9,80,3,3,1,6,0.5,1
65, test,6, no_probe,16,1,4,1,4,0.3,0.7, left,1,0.3,0.4,0.6,0.7,0.7044756,0, , ,9,80,1,2,1,6,0.5,1
65, test,6, probe,17,2,3,2,3,0.4,0.6, left,1,0.3,0.4,0.6,0.7,0.6902398,1,67.24139404,1.800005,10,81,2,2,1,6,0.5,1
65, test,6, no_probe,18,1,2,1,2,0.3,0.4, left,1,0.3,0.4,0.6,0.7,0.7827623,0, , ,10,81,1,2,1,6,0.5,1
65, test,6, probe,19,1,2,2,1,0.3,0.4, right,2,0.3,0.4,0.6,0.7,0.8840115,1,65.17556763,2.699988,11,82,2,2,1,6,0.5,1
65, test,6, no_probe,20,3,2,2,3,0.6,0.4, right,2,0.3,0.4,0.6,0.7,0.7730842,0, , ,11,82,1,3,1,6,0.5,1
65, test,6, no_probe,21,2,3,2,3,0.4,0.6, left,1,0.3,0.4,0.6,0.7,0.5429245,1, , ,12,83,2,3,1,6,0.5,1
65, test,6, probe,22,1,3,3,1,0.3,0.6, right,2,0.3,0.4,0.6,0.7,0.8715767,0,42.38668823,2.5999592,12,83,3,3,1,6,0.5,1
65, test,6, no_probe,23,1,2,2,1,0.3,0.4, right,2,0.3,0.4,0.6,0.7,0.6776114,0, , ,12,83,1,3,1,6,0.5,1
65, test,6, no_probe,24,1,3,3,1,0.3,0.6, right,2,0.3,0.4,0.6,0.7,0.4554363,0, , ,12,83,2,3,1,6,0.5,1
65, test,6, probe,25,4,3,4,3,0.7,0.6, left,1,0.3,0.4,0.6,0.7,0.6592059,1,40.12997437,1.7833489,13,84,3,3,1,6,0.5,1
65, test,7, no_probe,1,4,2,2,4,0.7,0.4, right,2,0.3,0.4,0.6,0.7,0.5433504,1, , ,1,85,1,2,1,6,0.5,1
65, test,7, probe,2,4,1,1,4,0.7,0.3, right,2,0.3,0.4,0.6,0.7,0.6704052,1,68.4079895,1.6999727,2,86,2,2,1,6,0.5,1
65, test,7, no_probe,3,4,3,3,4,0.7,0.6, right,2,0.3,0.4,0.6,0.7,0.6722808,1, , ,3,87,1,3,1,6,0.5,1
65, test,7, no_probe,4,4,2,2,4,0.7,0.4, right,2,0.3,0.4,0.6,0.7,0.7641622,1, , ,4,88,2,3,1,6,0.5,1
65, test,7, probe,5,4,2,2,4,0.7,0.4, right,2,0.3,0.4,0.6,0.7,0.605885,0,70.5369873,1.7499267,4,88,3,3,1,6,0.5,1
65, test,7, no_probe,6,3,1,1,3,0.6,0.3, right,2,0.3,0.4,0.6,0.7,0.6966536,0, , ,4,88,1,2,1,6,0.5,1
65, test,7, probe,7,1,3,1,3,0.3,0.6, left,1,0.3,0.4,0.6,0.7,0.6701391,1,72.31185913,1.75001,5,89,2,2,1,6,0.5,1
65, test,7, no_probe,8,4,3,4,3,0.7,0.6, left,1,0.3,0.4,0.6,0.7,0.7970053,0, , ,5,89,1,2,1,6,0.5,1
65, test,7, probe,9,3,2,2,3,0.6,0.4, right,2,0.3,0.4,0.6,0.7,1.1226411,1,68.61761475,2.3332965,6,90,2,2,1,6,0.5,1
65, test,7, no_probe,10,4,3,4,3,0.7,0.6, left,1,0.3,0.4,0.6,0.7,0.7086275,1, , ,7,91,1,2,1,6,0.5,1
65, test,7, probe,11,4,3,4,3,0.7,0.6, left,1,0.3,0.4,0.6,0.7,0.5613009,1,70.46755981,4.5999574,8,92,2,2,1,6,0.5,1
65, test,7, no_probe,12,4,3,4,3,0.7,0.6, left,1,0.3,0.4,0.6,0.7,0.5726926,1, , ,9,93,1,2,1,6,0.5,1
65, test,7, probe,13,4,2,2,4,0.7,0.4, right,2,0.3,0.4,0.6,0.7,0.370446,1,70.26473999,1.7499819,10,94,2,2,1,6,0.5,1
65, test,7, no_probe,14,3,1,3,1,0.6,0.3, left,1,0.3,0.4,0.6,0.7,0.7067446,1, , ,11,95,1,3,1,6,0.5,1
65, test,7, no_probe,15,1,2,2,1,0.3,0.4, right,2,0.3,0.4,0.6,0.7,0.7595527,0, , ,11,95,2,3,1,6,0.5,1
65, test,7, probe,16,1,2,2,1,0.3,0.4, right,2,0.3,0.4,0.6,0.7,0.3430044,0,67.61489868,2.2999812,11,95,3,3,1,6,0.5,1
65, test,7, no_probe,17,4,1,4,1,0.7,0.3, left,1,0.3,0.4,0.6,0.7,0.7267544,0, , ,11,95,1,2,1,6,0.5,1
65, test,7, probe,18,1,2,1,2,0.3,0.4, left,1,0.3,0.4,0.6,0.7,0.4740052,0,56.35482788,5.0499891,11,95,2,2,1,6,0.5,1
65, test,7, no_probe,19,4,1,1,4,0.7,0.3, right,2,0.3,0.4,0.6,0.7,0.4741792,0, , ,11,95,1,2,1,6,0.5,1
65, test,7, probe,20,3,2,2,3,0.6,0.4, right,2,0.3,0.4,0.6,0.7,0.6280218,1,62.76516724,1.3832484,12,96,2,2,1,6,0.5,1
65, test,7, no_probe,21,4,2,4,2,0.7,0.4, left,1,0.3,0.4,0.6,0.7,0.5164161,1, , ,13,97,1,2,1,6,0.5,1
65, test,7, probe,22,4,2,2,4,0.7,0.4, right,2,0.3,0.4,0.6,0.7,0.3525424,0,61.64471436,1.1666406,13,97,2,2,1,6,0.5,1
65, test,7, no_probe,23,3,1,1,3,0.6,0.3, right,2,0.3,0.4,0.6,0.7,0.90002,1, , ,14,98,1,3,1,6,0.5,1
65, test,7, no_probe,24,3,1,3,1,0.6,0.3, left,1,0.3,0.4,0.6,0.7,0.560952,1, , ,15,99,2,3,1,6,0.5,1
65, test,7, probe,25,3,2,3,2,0.6,0.4, left,1,0.3,0.4,0.6,0.7,0.5173109,1,65.15039063,1.3499866,16,100,3,3,1,6,0.5,1
65, test,8, no_probe,1,1,2,1,2,0.3,0.4, left,1,0.3,0.4,0.6,0.7,0.6140655,0, , ,0,100,1,3,1,6,0.5,1
65, test,8, no_probe,2,1,3,1,3,0.3,0.6, left,1,0.3,0.4,0.6,0.7,0.4789635,0, , ,0,100,2,3,1,6,0.5,1
65, test,8, probe,3,2,4,4,2,0.4,0.7, right,2,0.3,0.4,0.6,0.7,0.7248782,1,64.32498169,1.2329947,1,101,3,3,1,6,0.5,1
65, test,8, no_probe,4,1,3,3,1,0.3,0.6, right,2,0.3,0.4,0.6,0.7,0.6862143,0, , ,1,101,1,3,1,6,0.5,1
65, test,8, no_probe,5,4,3,3,4,0.7,0.6, right,2,0.3,0.4,0.6,0.7,1.1478791,1, , ,2,102,2,3,1,6,0.5,1
65, test,8, probe,6,2,1,1,2,0.4,0.3, right,2,0.3,0.4,0.6,0.7,0.6802635,0,63.74655151,2.0333181,2,102,3,3,1,6,0.5,1
65, test,8, no_probe,7,3,1,1,3,0.6,0.3, right,2,0.3,0.4,0.6,0.7,0.7201183,1, , ,3,103,1,2,1,6,0.5,1
65, test,8, probe,8,2,4,4,2,0.4,0.7, right,2,0.3,0.4,0.6,0.7,0.4958256,0,61.33456421,1.2333239,3,103,2,2,1,6,0.5,1
65, test,8, no_probe,9,2,3,3,2,0.4,0.6, right,2,0.3,0.4,0.6,0.7,0.5427224,0, , ,3,103,1,2,1,6,0.5,1
65, test,8, probe,10,4,1,1,4,0.7,0.3, right,2,0.3,0.4,0.6,0.7,0.9304888,1,49.99462891,2.9333051,4,104,2,2,1,6,0.5,1
65, test,8, no_probe,11,4,3,3,4,0.7,0.6, right,2,0.3,0.4,0.6,0.7,0.7014827,1, , ,5,105,1,2,1,6,0.5,1
65, test,8, probe,12,4,3,4,3,0.7,0.6, left,1,0.3,0.4,0.6,0.7,0.9418326,1,65.61889648,2.9832415,6,106,2,2,1,6,0.5,1
65, test,8, no_probe,13,1,4,4,1,0.3,0.7, right,2,0.3,0.4,0.6,0.7,0.6384461,0, , ,6,106,1,3,1,6,0.5,1
65, test,8, no_probe,14,1,2,1,2,0.3,0.4, left,1,0.3,0.4,0.6,0.7,0.7135486,1, , ,7,107,2,3,1,6,0.5,1
65, test,8, probe,15,1,2,2,1,0.3,0.4, right,2,0.3,0.4,0.6,0.7,0.9299326,0,65.31436157,1.2666413,7,107,3,3,1,6,0.5,1
65, test,8, no_probe,16,4,3,3,4,0.7,0.6, right,2,0.3,0.4,0.6,0.7,0.5664401,0, , ,7,107,1,3,1,6,0.5,1
65, test,8, no_probe,17,4,3,3,4,0.7,0.6, right,2,0.3,0.4,0.6,0.7,0.5010746,1, , ,8,108,2,3,1,6,0.5,1
65, test,8, probe,18,4,3,4,3,0.7,0.6, left,1,0.3,0.4,0.6,0.7,1.4577651,0,63.29473877,1.4166497,8,108,3,3,1,6,0.5,1
65, test,8, no_probe,19,4,3,3,4,0.7,0.6, right,2,0.3,0.4,0.6,0.7,0.3991811,1, , ,9,109,1,2,1,6,0.5,1
65, test,8, probe,20,4,2,2,4,0.7,0.4, right,2,0.3,0.4,0.6,0.7,0.7610894,1,72.77407837,2.0332753,10,110,2,2,1,6,0.5,1
65, test,8, no_probe,21,2,3,2,3,0.4,0.6, left,1,0.3,0.4,0.6,0.7,0.6286175,1, , ,11,111,1,3,1,6,0.5,1
65, test,8, no_probe,22,3,1,1,3,0.6,0.3, right,2,0.3,0.4,0.6,0.7,0.5688344,1, , ,12,112,2,3,1,6,0.5,1
65, test,8, probe,23,2,4,4,2,0.4,0.7, right,2,0.3,0.4,0.6,0.7,0.4553334,0,69.0296936,1.5666379,12,112,3,3,1,6,0.5,1
65, test,8, no_probe,24,3,1,3,1,0.6,0.3, left,1,0.3,0.4,0.6,0.7,0.5112533,0, , ,12,112,1,3,1,6,0.5,1
65, test,8, no_probe,25,3,4,3,4,0.6,0.7, left,1,0.3,0.4,0.6,0.7,0.7243068,0, , ,12,112,2,3,1,6,0.5,1
