subject, block_type, block, thought probe, trial, chosen, unchosen, offer_left_image, offer_right_image, exp_value_chosen, exp_value_unchosen, choice_location, choice_key, exp_value1, exp_value2, exp_value3, exp_value4, RT, reward, vas, RT_vas, coins_per_block, coins_per_task, count_to_prob, ntrial_to_prob, ITI_duration,RT_deadline,choice_feedback_duration,outcome_duration
10,practice,1, abort_trial,1,,,,,,,,,,,,,,,,,,,,,,,,
10,practice,1, no_probe,2,3,2,2,3,0.6,0.4, right,2,0.3,0.4,0.6,0.7,0.9124258,1, , ,1,1,1,2,1,6,0.5,1
10,practice,1, probe,3,1,2,1,2,0.3,0.4, left,1,0.3,0.4,0.6,0.7,1.2086323,0,99.99951172,3.2165967,1,1,2,2,1,6,0.5,1
10,practice,1, no_probe,4,3,1,1,3,0.6,0.3, right,2,0.3,0.4,0.6,0.7,1.5823593,1, , ,2,2,1,2,1,6,0.5,1
10,practice,1, probe,5,4,1,4,1,0.7,0.3, left,1,0.3,0.4,0.6,0.7,1.4973769,1,99.99938965,2.299974,3,3,2,2,1,6,0.5,1
10,practice,1, no_probe,6,3,2,3,2,0.6,0.4, left,1,0.3,0.4,0.6,0.7,1.1211241,1, , ,4,4,1,2,1,6,0.5,1
10, test,1, no_probe,1,4,2,4,2,0.7,0.4, left,1,0.3,0.4,0.6,0.7,0.6105821,1, , ,1,5,1,2,1,6,0.5,1
10, test,1, probe,2,4,3,3,4,0.7,0.6, right,2,0.3,0.4,0.6,0.7,0.6437252,1,99.99945068,2.7666218,2,6,2,2,1,6,0.5,1
10, test,1, no_probe,3,4,1,1,4,0.7,0.3, right,2,0.3,0.4,0.6,0.7,0.7721551,0, , ,2,6,1,2,1,6,0.5,1
10, test,1, probe,4,1,2,1,2,0.3,0.4, left,1,0.3,0.4,0.6,0.7,0.8233322,0,94.96817017,2.9999564,2,6,2,2,1,6,0.5,1
10, test,1, no_probe,5,1,2,2,1,0.3,0.4, right,2,0.3,0.4,0.6,0.7,1.586551,0, , ,2,6,1,2,1,6,0.5,1
10, test,1, probe,6,2,3,2,3,0.4,0.6, left,1,0.3,0.4,0.6,0.7,1.6327074,0,95.35971069,2.0499701,2,6,2,2,1,6,0.5,1
10, test,1, no_probe,7,1,4,4,1,0.3,0.7, right,2,0.3,0.4,0.6,0.7,1.5531865,0, , ,2,6,1,3,1,6,0.5,1
10, test,1, no_probe,8,2,4,2,4,0.4,0.7, left,1,0.3,0.4,0.6,0.7,2.4571495,0, , ,2,6,2,3,1,6,0.5,1
10, test,1, probe,9,3,1,1,3,0.6,0.3, right,2,0.3,0.4,0.6,0.7,1.572596,1,93.91235352,2.4333298,3,7,3,3,1,6,0.5,1
10, test,1, no_probe,10,3,2,3,2,0.6,0.4, left,1,0.3,0.4,0.6,0.7,1.4004604,0, , ,3,7,1,2,1,6,0.5,1
10, test,1, probe,11,3,2,2,3,0.6,0.4, right,2,0.3,0.4,0.6,0.7,2.578418,0,82.6131897,1.3832932,3,7,2,2,1,6,0.5,1
10, test,1, no_probe,12,2,4,2,4,0.4,0.7, left,1,0.3,0.4,0.6,0.7,1.6783694,1, , ,4,8,1,3,1,6,0.5,1
10, test,1, no_probe,13,2,1,1,2,0.4,0.3, right,2,0.3,0.4,0.6,0.7,1.6608993,1, , ,5,9,2,3,1,6,0.5,1
10, test,1, probe,14,3,4,4,3,0.6,0.7, right,2,0.3,0.4,0.6,0.7,1.5557754,1,99.99963379,2.1499598,6,10,3,3,1,6,0.5,1
10, test,1, no_probe,15,3,4,3,4,0.6,0.7, left,1,0.3,0.4,0.6,0.7,0.9920235,1, , ,7,11,1,3,1,6,0.5,1
10, test,1, no_probe,16,3,4,4,3,0.6,0.7, right,2,0.3,0.4,0.6,0.7,0.9512215,0, , ,7,11,2,3,1,6,0.5,1
10, test,1, probe,17,4,1,1,4,0.7,0.3, right,2,0.3,0.4,0.6,0.7,1.5933,0,92.37490845,1.7333242,7,11,3,3,1,6,0.5,1
10, test,1, no_probe,18,3,4,4,3,0.6,0.7, right,2,0.3,0.4,0.6,0.7,0.8780728,1, , ,8,12,1,3,1,6,0.5,1
10, test,1, no_probe,19,2,3,2,3,0.4,0.6, left,1,0.3,0.4,0.6,0.7,1.2196701,1, , ,9,13,2,3,1,6,0.5,1
10, test,1, probe,20,1,4,4,1,0.3,0.7, right,2,0.3,0.4,0.6,0.7,1.6884172,1,99.99957275,1.9666151,10,14,3,3,1,6,0.5,1
10, test,1, no_probe,21,3,1,3,1,0.6,0.3, left,1,0.3,0.4,0.6,0.7,1.225615,0, , ,10,14,1,3,1,6,0.5,1
10, test,1, no_probe,22,3,4,4,3,0.6,0.7, right,2,0.3,0.4,0.6,0.7,0.7900467,1, , ,11,15,2,3,1,6,0.5,1
10, test,1, probe,23,2,4,2,4,0.4,0.7, left,1,0.3,0.4,0.6,0.7,1.1410053,1,92.69525146,3.5332879,12,16,3,3,1,6,0.5,1
10, test,1, no_probe,24,3,1,1,3,0.6,0.3, right,2,0.3,0.4,0.6,0.7,1.1987936,0, , ,12,16,1,2,1,6,0.5,1
10, test,1, probe,25,2,1,2,1,0.4,0.3, left,1,0.3,0.4,0.6,0.7,1.6390749,0,80.5776062,2.3333185,12,16,2,2,1,6,0.5,1
10, test,2, no_probe,1,3,4,4,3,0.6,0.7, right,2,0.3,0.4,0.6,0.7,0.570285,1, , ,1,17,1,2,1,6,0.5,1
10, test,2, probe,2,3,2,3,2,0.6,0.4, left,1,0.3,0.4,0.6,0.7,0.8456491,0,99.99954224,2.0999513,1,17,2,2,1,6,0.5,1
10, test,2, no_probe,3,2,3,2,3,0.4,0.6, left,1,0.3,0.4,0.6,0.7,0.8940821,1, , ,2,18,1,2,1,6,0.5,1
10, test,2, probe,4,2,4,2,4,0.4,0.7, left,1,0.3,0.4,0.6,0.7,1.2321478,1,99.99954224,2.0499855,3,19,2,2,1,6,0.5,1
10, test,2, no_probe,5,2,3,3,2,0.4,0.6, right,2,0.3,0.4,0.6,0.7,1.1542476,1, , ,4,20,1,3,1,6,0.5,1
10, test,2, no_probe,6,2,4,4,2,0.4,0.7, right,2,0.3,0.4,0.6,0.7,0.8962722,1, , ,5,21,2,3,1,6,0.5,1
10, test,2, probe,7,2,4,4,2,0.4,0.7, right,2,0.3,0.4,0.6,0.7,0.4938544,0,99.99902344,2.7166316,5,21,3,3,1,6,0.5,1
10, test,2, no_probe,8,4,3,3,4,0.7,0.6, right,2,0.3,0.4,0.6,0.7,1.9189711,1, , ,6,22,1,3,1,6,0.5,1
10, test,2, no_probe,9,1,2,1,2,0.3,0.4, left,1,0.3,0.4,0.6,0.7,0.9913308,1, , ,7,23,2,3,1,6,0.5,1
10, test,2, probe,10,1,3,3,1,0.3,0.6, right,2,0.3,0.4,0.6,0.7,0.9491095,0,99.99874878,2.8166153,7,23,3,3,1,6,0.5,1
10, test,2, no_probe,11,3,4,3,4,0.6,0.7, left,1,0.3,0.4,0.6,0.7,1.4259502,0, , ,7,23,1,2,1,6,0.5,1
10, test,2, probe,12,2,3,2,3,0.4,0.6, left,1,0.3,0.4,0.6,0.7,0.9584915,1,88.95977783,2.3500089,8,24,2,2,1,6,0.5,1
10, test,2, no_probe,13,1,4,4,1,0.3,0.7, right,2,0.3,0.4,0.6,0.7,0.5912743,1, , ,9,25,1,3,1,6,0.5,1
10, test,2, no_probe,14,4,3,4,3,0.7,0.6, left,1,0.3,0.4,0.6,0.7,0.8378974,0, , ,9,25,2,3,1,6,0.5,1
10, test,2, probe,15,1,2,2,1,0.3,0.4, right,2,0.3,0.4,0.6,0.7,0.5982997,1,98.80758667,2.3833301,10,26,3,3,1,6,0.5,1
10, test,2, no_probe,16,1,3,3,1,0.3,0.6, right,2,0.3,0.4,0.6,0.7,0.878789,0, , ,10,26,1,2,1,6,0.5,1
10, test,2, probe,17,2,3,3,2,0.4,0.6, right,2,0.3,0.4,0.6,0.7,0.8244317,0,82.47290039,4.3499687,10,26,2,2,1,6,0.5,1
10, test,2, no_probe,18,1,2,2,1,0.3,0.4, right,2,0.3,0.4,0.6,0.7,1.1374787,0, , ,10,26,1,2,1,6,0.5,1
10, test,2, probe,19,1,4,1,4,0.3,0.7, left,1,0.3,0.4,0.6,0.7,1.0728923,0,91.04690552,6.533217,10,26,2,2,1,6,0.5,1
10, test,2, no_probe,20,1,3,1,3,0.3,0.6, left,1,0.3,0.4,0.6,0.7,0.7614114,1, , ,11,27,1,3,1,6,0.5,1
10, test,2, no_probe,21,4,3,3,4,0.7,0.6, right,2,0.3,0.4,0.6,0.7,1.7844362,1, , ,12,28,2,3,1,6,0.5,1
10, test,2, probe,22,4,2,2,4,0.7,0.4, right,2,0.3,0.4,0.6,0.7,1.7907991,1,94.28634644,2.1833092,13,29,3,3,1,6,0.5,1
10, test,2, no_probe,23,1,4,1,4,0.3,0.7, left,1,0.3,0.4,0.6,0.7,0.9952506,0, , ,13,29,1,3,1,6,0.5,1
10, test,2, no_probe,24,4,3,4,3,0.7,0.6, left,1,0.3,0.4,0.6,0.7,2.3693462,0, , ,13,29,2,3,1,6,0.5,1
10, test,2, probe,25,1,3,1,3,0.3,0.6, left,1,0.3,0.4,0.6,0.7,0.8605742,1,99.99981689,1.566652,14,30,3,3,1,6,0.5,1
10, test,3, no_probe,1,1,4,4,1,0.3,0.7, right,2,0.3,0.4,0.6,0.7,1.0655791,1, , ,1,31,1,2,1,6,0.5,1
10, test,3, probe,2,2,3,2,3,0.4,0.6, left,1,0.3,0.4,0.6,0.7,1.2790424,0,97.14376831,3.8832783,1,31,2,2,1,6,0.5,1
10, test,3, no_probe,3,1,2,2,1,0.3,0.4, right,2,0.3,0.4,0.6,0.7,1.1131427,0, , ,1,31,1,2,1,6,0.5,1
10, test,3, probe,4,2,1,1,2,0.4,0.3, right,2,0.3,0.4,0.6,0.7,1.8168602,0,99.99450684,4.4499972,1,31,2,2,1,6,0.5,1
10, test,3, no_probe,5,1,2,2,1,0.3,0.4, right,2,0.3,0.4,0.6,0.7,1.7480681,1, , ,2,32,1,2,1,6,0.5,1
10, test,3, probe,6,3,2,2,3,0.6,0.4, right,2,0.3,0.4,0.6,0.7,1.7112719,1,99.99963379,1.7999745,3,33,2,2,1,6,0.5,1
10, test,3, no_probe,7,4,2,4,2,0.7,0.4, left,1,0.3,0.4,0.6,0.7,1.2133299,1, , ,4,34,1,2,1,6,0.5,1
10, test,3, probe,8,1,2,2,1,0.3,0.4, right,2,0.3,0.4,0.6,0.7,1.1431169,0,99.99893188,2.2166103,4,34,2,2,1,6,0.5,1
10, test,3, no_probe,9,4,1,1,4,0.7,0.3, right,2,0.3,0.4,0.6,0.7,0.7610049,0, , ,4,34,1,2,1,6,0.5,1
10, test,3, probe,10,3,4,3,4,0.6,0.7, left,1,0.3,0.4,0.6,0.7,1.0039386,1,90.50357056,1.5166884,5,35,2,2,1,6,0.5,1
10, test,3, no_probe,11,4,1,1,4,0.7,0.3, right,2,0.3,0.4,0.6,0.7,1.2986763,1, , ,6,36,1,3,1,6,0.5,1
10, test,3, no_probe,12,2,1,1,2,0.4,0.3, right,2,0.3,0.4,0.6,0.7,1.3804318,0, , ,6,36,2,3,1,6,0.5,1
10, test,3, probe,13,3,4,4,3,0.6,0.7, right,2,0.3,0.4,0.6,0.7,1.9465122,0,62.00662231,2.4333129,6,36,3,3,1,6,0.5,1
10, test,3, no_probe,14,2,4,4,2,0.4,0.7, right,2,0.3,0.4,0.6,0.7,1.1749723,1, , ,7,37,1,3,1,6,0.5,1
10, test,3, no_probe,15,1,2,2,1,0.3,0.4, right,2,0.3,0.4,0.6,0.7,1.4862591,1, , ,8,38,2,3,1,6,0.5,1
10, test,3, probe,16,4,3,4,3,0.7,0.6, left,1,0.3,0.4,0.6,0.7,1.0684893,0,85.51571655,1.8166631,8,38,3,3,1,6,0.5,1
10, test,3, no_probe,17,1,3,1,3,0.3,0.6, left,1,0.3,0.4,0.6,0.7,1.3019358,0, , ,8,38,1,3,1,6,0.5,1
10, test,3, no_probe,18,1,4,4,1,0.3,0.7, right,2,0.3,0.4,0.6,0.7,1.8467484,1, , ,9,39,2,3,1,6,0.5,1
10, test,3, probe,19,2,4,2,4,0.4,0.7, left,1,0.3,0.4,0.6,0.7,2.2330071,0,89.07269287,1.3166645,9,39,3,3,1,6,0.5,1
10, test,3, no_probe,20,3,4,3,4,0.6,0.7, left,1,0.3,0.4,0.6,0.7,1.915297,0, , ,9,39,1,3,1,6,0.5,1
10, test,3, no_probe,21,1,2,2,1,0.3,0.4, right,2,0.3,0.4,0.6,0.7,1.3888333,0, , ,9,39,2,3,1,6,0.5,1
10, test,3, probe,22,4,1,4,1,0.7,0.3, left,1,0.3,0.4,0.6,0.7,1.7021976,1,73.89981079,1.2499721,10,40,3,3,1,6,0.5,1
10, test,3, no_probe,23,2,4,2,4,0.4,0.7, left,1,0.3,0.4,0.6,0.7,1.448846,1, , ,11,41,1,2,1,6,0.5,1
10, test,3, probe,24,1,3,1,3,0.3,0.6, left,1,0.3,0.4,0.6,0.7,1.4913217,0,88.73272705,1.4833087,11,41,2,2,1,6,0.5,1
10, test,3, no_probe,25,1,2,1,2,0.3,0.4, left,1,0.3,0.4,0.6,0.7,1.0888689,0, , ,11,41,1,3,1,6,0.5,1
10, test,4, no_probe,1,1,3,1,3,0.3,0.6, left,1,0.3,0.4,0.6,0.7,0.8318174,1, , ,1,42,1,2,1,6,0.5,1
10, test,4, probe,2,1,2,1,2,0.3,0.4, left,1,0.3,0.4,0.6,0.7,1.1429545,1,99.99926758,2.3333303,2,43,2,2,1,6,0.5,1
10, test,4, no_probe,3,4,3,3,4,0.7,0.6, right,2,0.3,0.4,0.6,0.7,1.0168217,1, , ,3,44,1,3,1,6,0.5,1
10, test,4, no_probe,4,1,4,1,4,0.3,0.7, left,1,0.3,0.4,0.6,0.7,0.8536087,1, , ,4,45,2,3,1,6,0.5,1
10, test,4, probe,5,1,2,1,2,0.3,0.4, left,1,0.3,0.4,0.6,0.7,0.8495447,0,99.99975586,1.8333013,4,45,3,3,1,6,0.5,1
10, test,4, no_probe,6,2,3,2,3,0.4,0.6, left,1,0.3,0.4,0.6,0.7,1.0466734,1, , ,5,46,1,3,1,6,0.5,1
10, test,4, no_probe,7,1,4,1,4,0.3,0.7, left,1,0.3,0.4,0.6,0.7,1.1452508,1, , ,6,47,2,3,1,6,0.5,1
10, test,4, probe,8,2,4,2,4,0.4,0.7, left,1,0.3,0.4,0.6,0.7,1.0960679,0,95.33084106,2.283288,6,47,3,3,1,6,0.5,1
10, test,4, no_probe,9,2,3,3,2,0.4,0.6, right,2,0.3,0.4,0.6,0.7,1.4848827,1, , ,7,48,1,3,1,6,0.5,1
10, test,4, no_probe,10,2,4,2,4,0.4,0.7, left,1,0.3,0.4,0.6,0.7,1.0426018,0, , ,7,48,2,3,1,6,0.5,1
10, test,4, probe,11,1,3,3,1,0.3,0.6, right,2,0.3,0.4,0.6,0.7,1.0322105,0,97.87866211,5.3832682,7,48,3,3,1,6,0.5,1
10, test,4, no_probe,12,4,3,4,3,0.7,0.6, left,1,0.3,0.4,0.6,0.7,1.0703692,0, , ,7,48,1,2,1,6,0.5,1
10, test,4, probe,13,1,2,2,1,0.3,0.4, right,2,0.3,0.4,0.6,0.7,0.9378183,0,93.32034302,4.5832518,7,48,2,2,1,6,0.5,1
10, test,4, no_probe,14,2,4,2,4,0.4,0.7, left,1,0.3,0.4,0.6,0.7,0.9126475,0, , ,7,48,1,2,1,6,0.5,1
10, test,4, probe,15,4,2,2,4,0.7,0.4, right,2,0.3,0.4,0.6,0.7,1.9302498,1,99.99926758,2.5666715,8,49,2,2,1,6,0.5,1
10, test,4, no_probe,16,1,2,2,1,0.3,0.4, right,2,0.3,0.4,0.6,0.7,1.3262328,0, , ,8,49,1,3,1,6,0.5,1
10, test,4, no_probe,17,2,3,2,3,0.4,0.6, left,1,0.3,0.4,0.6,0.7,0.8024691,1, , ,9,50,2,3,1,6,0.5,1
10, test,4, probe,18,2,3,3,2,0.4,0.6, right,2,0.3,0.4,0.6,0.7,1.2574749,0,97.7729187,2.5499563,9,50,3,3,1,6,0.5,1
10, test,4, no_probe,19,4,3,3,4,0.7,0.6, right,2,0.3,0.4,0.6,0.7,1.4724512,0, , ,9,50,1,3,1,6,0.5,1
10, test,4, no_probe,20,3,1,1,3,0.6,0.3, right,2,0.3,0.4,0.6,0.7,1.1510461,1, , ,10,51,2,3,1,6,0.5,1
10, test,4, probe,21,2,4,2,4,0.4,0.7, left,1,0.3,0.4,0.6,0.7,1.4874562,1,97.35821533,1.6666353,11,52,3,3,1,6,0.5,1
10, test,4, no_probe,22,2,4,2,4,0.4,0.7, left,1,0.3,0.4,0.6,0.7,1.1612958,0, , ,11,52,1,3,1,6,0.5,1
10, test,4, no_probe,23,3,1,1,3,0.6,0.3, right,2,0.3,0.4,0.6,0.7,1.2188892,0, , ,11,52,2,3,1,6,0.5,1
10, test,4, probe,24,4,2,4,2,0.7,0.4, left,1,0.3,0.4,0.6,0.7,1.1520134,1,99.13583374,2.4666327,12,53,3,3,1,6,0.5,1
10, test,4, no_probe,25,1,3,3,1,0.3,0.6, right,2,0.3,0.4,0.6,0.7,1.0831333,1, , ,13,54,1,2,1,6,0.5,1
10, test,5, no_probe,1,1,3,1,3,0.3,0.6, left,1,0.3,0.4,0.6,0.7,0.7970278,1, , ,1,55,1,2,1,6,0.5,1
10, test,5, probe,2,4,3,4,3,0.7,0.6, left,1,0.3,0.4,0.6,0.7,1.3064356,1,99.99981689,1.8166508,2,56,2,2,1,6,0.5,1
10, test,5, no_probe,3,4,3,4,3,0.7,0.6, left,1,0.3,0.4,0.6,0.7,1.1213604,1, , ,3,57,1,2,1,6,0.5,1
10, test,5, probe,4,4,3,3,4,0.7,0.6, right,2,0.3,0.4,0.6,0.7,0.9029142,0,99.99905396,2.2333085,3,57,2,2,1,6,0.5,1
10, test,5, no_probe,5,3,1,3,1,0.6,0.3, left,1,0.3,0.4,0.6,0.7,2.3653467,1, , ,4,58,1,3,1,6,0.5,1
10, test,5, no_probe,6,3,4,3,4,0.6,0.7, left,1,0.3,0.4,0.6,0.7,0.8562625,0, , ,4,58,2,3,1,6,0.5,1
10, test,5, probe,7,1,2,2,1,0.3,0.4, right,2,0.3,0.4,0.6,0.7,0.7757238,0,99.99981689,1.5999716,4,58,3,3,1,6,0.5,1
10, test,5, no_probe,8,3,4,4,3,0.6,0.7, right,2,0.3,0.4,0.6,0.7,0.9574106,1, , ,5,59,1,3,1,6,0.5,1
10, test,5, no_probe,9,3,2,3,2,0.6,0.4, left,1,0.3,0.4,0.6,0.7,1.2955574,0, , ,5,59,2,3,1,6,0.5,1
10, test,5, probe,10,3,2,3,2,0.6,0.4, left,1,0.3,0.4,0.6,0.7,1.4455067,1,99.99975586,1.6333483,6,60,3,3,1,6,0.5,1
10, test,5, no_probe,11,1,4,1,4,0.3,0.7, left,1,0.3,0.4,0.6,0.7,1.0380542,0, , ,6,60,1,3,1,6,0.5,1
10, test,5, no_probe,12,3,2,3,2,0.6,0.4, left,1,0.3,0.4,0.6,0.7,0.9834749,0, , ,6,60,2,3,1,6,0.5,1
10, test,5, probe,13,4,1,4,1,0.7,0.3, left,1,0.3,0.4,0.6,0.7,1.0579915,1,95.6083374,1.4833288,7,61,3,3,1,6,0.5,1
10, test,5, no_probe,14,3,1,3,1,0.6,0.3, left,1,0.3,0.4,0.6,0.7,0.8083507,1, , ,8,62,1,2,1,6,0.5,1
10, test,5, probe,15,4,2,2,4,0.7,0.4, right,2,0.3,0.4,0.6,0.7,1.4933985,0,95.32525635,1.366644,8,62,2,2,1,6,0.5,1
10, test,5, no_probe,16,1,4,1,4,0.3,0.7, left,1,0.3,0.4,0.6,0.7,0.0034299,0, , ,8,62,1,2,1,6,0.5,1
10, test,5, probe,17,3,4,3,4,0.6,0.7, left,1,0.3,0.4,0.6,0.7,0.7044221,0,86.75579834,1.349978,8,62,2,2,1,6,0.5,1
10, test,5, no_probe,18,1,3,1,3,0.3,0.6, left,1,0.3,0.4,0.6,0.7,0.889704,0, , ,8,62,1,2,1,6,0.5,1
10, test,5, probe,19,4,2,4,2,0.7,0.4, left,1,0.3,0.4,0.6,0.7,1.31596,0,81.11358643,1.6500031,8,62,2,2,1,6,0.5,1
10, test,5, no_probe,20,2,4,4,2,0.4,0.7, right,2,0.3,0.4,0.6,0.7,0.7217038,1, , ,9,63,1,3,1,6,0.5,1
10, test,5, no_probe,21,3,1,3,1,0.6,0.3, left,1,0.3,0.4,0.6,0.7,1.2271154,1, , ,10,64,2,3,1,6,0.5,1
10, test,5, probe,22,3,1,3,1,0.6,0.3, left,1,0.3,0.4,0.6,0.7,0.7664607,1,93.05209351,1.5332933,11,65,3,3,1,6,0.5,1
10, test,5, no_probe,23,2,1,2,1,0.4,0.3, left,1,0.3,0.4,0.6,0.7,0.9272469,1, , ,12,66,1,3,1,6,0.5,1
10, test,5, no_probe,24,4,1,1,4,0.7,0.3, right,2,0.3,0.4,0.6,0.7,0.9436462,0, , ,12,66,2,3,1,6,0.5,1
10, test,5, probe,25,4,1,4,1,0.7,0.3, left,1,0.3,0.4,0.6,0.7,1.5073503,1,99.99945068,2.6666195,13,67,3,3,1,6,0.5,1
10, test,6, no_probe,1,1,4,1,4,0.3,0.7, left,1,0.3,0.4,0.6,0.7,0.438133,0, , ,0,67,1,2,1,6,0.5,1
10, test,6, probe,2,4,2,2,4,0.7,0.4, right,2,0.3,0.4,0.6,0.7,0.9067736,0,99.62902832,1.9499688,0,67,2,2,1,6,0.5,1
10, test,6, no_probe,3,2,3,3,2,0.4,0.6, right,2,0.3,0.4,0.6,0.7,0.8967695,0, , ,0,67,1,2,1,6,0.5,1
10, test,6, probe,4,3,1,1,3,0.6,0.3, right,2,0.3,0.4,0.6,0.7,1.3383038,1,96.15219116,1.4166709,1,68,2,2,1,6,0.5,1
10, test,6, no_probe,5,3,2,2,3,0.6,0.4, right,2,0.3,0.4,0.6,0.7,0.791913,0, , ,1,68,1,2,1,6,0.5,1
10, test,6, probe,6,2,1,2,1,0.4,0.3, left,1,0.3,0.4,0.6,0.7,0.8273169,1,96.11117554,1.3500065,2,69,2,2,1,6,0.5,1
10, test,6, no_probe,7,3,1,3,1,0.6,0.3, left,1,0.3,0.4,0.6,0.7,0.9320426,1, , ,3,70,1,3,1,6,0.5,1
10, test,6, no_probe,8,2,1,2,1,0.4,0.3, left,1,0.3,0.4,0.6,0.7,0.9604303,0, , ,3,70,2,3,1,6,0.5,1
10, test,6, probe,9,3,2,3,2,0.6,0.4, left,1,0.3,0.4,0.6,0.7,0.9676101,1,99.99945068,2.3333024,4,71,3,3,1,6,0.5,1
10, test,6, no_probe,10,3,1,3,1,0.6,0.3, left,1,0.3,0.4,0.6,0.7,0.6396309,0, , ,4,71,1,3,1,6,0.5,1
10, test,6, no_probe,11,1,4,1,4,0.3,0.7, left,1,0.3,0.4,0.6,0.7,0.8508696,0, , ,4,71,2,3,1,6,0.5,1
10, test,6, probe,12,4,1,1,4,0.7,0.3, right,2,0.3,0.4,0.6,0.7,0.8072954,1,99.99893188,2.0166337,5,72,3,3,1,6,0.5,1
10, test,6, no_probe,13,1,2,1,2,0.3,0.4, left,1,0.3,0.4,0.6,0.7,0.6861535,0, , ,5,72,1,3,1,6,0.5,1
10, test,6, no_probe,14,3,2,3,2,0.6,0.4, left,1,0.3,0.4,0.6,0.7,0.9275263,1, , ,6,73,2,3,1,6,0.5,1
10, test,6, probe,15,2,4,4,2,0.4,0.7, right,2,0.3,0.4,0.6,0.7,1.6058384,1,97.08917236,1.4333256,7,74,3,3,1,6,0.5,1
10, test,6, no_probe,16,4,1,1,4,0.7,0.3, right,2,0.3,0.4,0.6,0.7,0.9868939,1, , ,8,75,1,3,1,6,0.5,1
10, test,6, no_probe,17,3,4,4,3,0.6,0.7, right,2,0.3,0.4,0.6,0.7,1.1091746,1, , ,9,76,2,3,1,6,0.5,1
10, test,6, probe,18,2,4,4,2,0.4,0.7, right,2,0.3,0.4,0.6,0.7,1.134945,0,94.66043091,2.3666459,9,76,3,3,1,6,0.5,1
10, test,6, no_probe,19,3,2,2,3,0.6,0.4, right,2,0.3,0.4,0.6,0.7,1.1234905,0, , ,9,76,1,2,1,6,0.5,1
10, test,6, probe,20,2,3,2,3,0.4,0.6, left,1,0.3,0.4,0.6,0.7,1.8395899,0,89.91165161,1.4166582,9,76,2,2,1,6,0.5,1
10, test,6, no_probe,21,3,1,3,1,0.6,0.3, left,1,0.3,0.4,0.6,0.7,1.1427079,1, , ,10,77,1,2,1,6,0.5,1
10, test,6, probe,22,4,2,2,4,0.7,0.4, right,2,0.3,0.4,0.6,0.7,1.5384556,1,98.12799072,2.1833315,11,78,2,2,1,6,0.5,1
10, test,6, no_probe,23,1,2,2,1,0.3,0.4, right,2,0.3,0.4,0.6,0.7,0.9248123,0, , ,11,78,1,3,1,6,0.5,1
10, test,6, no_probe,24,2,1,1,2,0.4,0.3, right,2,0.3,0.4,0.6,0.7,1.3696597,0, , ,11,78,2,3,1,6,0.5,1
10, test,6, probe,25,2,1,2,1,0.4,0.3, left,1,0.3,0.4,0.6,0.7,1.4044288,1,99.80395508,1.8999738,12,79,3,3,1,6,0.5,1
10, test,7, no_probe,1,2,3,2,3,0.4,0.6, left,1,0.3,0.4,0.6,0.7,0.6424509,0, , ,0,79,1,3,1,6,0.5,1
10, test,7, no_probe,2,1,2,1,2,0.3,0.4, left,1,0.3,0.4,0.6,0.7,0.8756666,0, , ,0,79,2,3,1,6,0.5,1
10, test,7, probe,3,4,1,1,4,0.7,0.3, right,2,0.3,0.4,0.6,0.7,1.0261013,0,95.20565796,2.0329362,0,79,3,3,1,6,0.5,1
10, test,7, no_probe,4,3,4,4,3,0.6,0.7, right,2,0.3,0.4,0.6,0.7,0.7955518,0, , ,0,79,1,2,1,6,0.5,1
10, test,7, probe,5,1,3,3,1,0.3,0.6, right,2,0.3,0.4,0.6,0.7,1.0860505,0,96.84436035,1.4165702,0,79,2,2,1,6,0.5,1
10, test,7, no_probe,6,1,4,1,4,0.3,0.7, left,1,0.3,0.4,0.6,0.7,0.8146089,0, , ,0,79,1,2,1,6,0.5,1
10, test,7, probe,7,1,3,1,3,0.3,0.6, left,1,0.3,0.4,0.6,0.7,0.6953533,1,96.96722412,1.450035,1,80,2,2,1,6,0.5,1
10, test,7, no_probe,8,1,4,1,4,0.3,0.7, left,1,0.3,0.4,0.6,0.7,0.5599589,0, , ,1,80,1,3,1,6,0.5,1
10, test,7, no_probe,9,4,2,4,2,0.7,0.4, left,1,0.3,0.4,0.6,0.7,0.9756379,1, , ,2,81,2,3,1,6,0.5,1
10, test,7, probe,10,3,1,3,1,0.6,0.3, left,1,0.3,0.4,0.6,0.7,0.8066192,0,96.55609131,1.4166369,2,81,3,3,1,6,0.5,1
10, test,7, no_probe,11,1,3,3,1,0.3,0.6, right,2,0.3,0.4,0.6,0.7,1.1213878,0, , ,2,81,1,3,1,6,0.5,1
10, test,7, no_probe,12,2,1,2,1,0.4,0.3, left,1,0.3,0.4,0.6,0.7,1.0351957,0, , ,2,81,2,3,1,6,0.5,1
10, test,7, probe,13,4,1,4,1,0.7,0.3, left,1,0.3,0.4,0.6,0.7,0.7272073,0,99.16134644,1.4500098,2,81,3,3,1,6,0.5,1
10, test,7, no_probe,14,3,4,3,4,0.6,0.7, left,1,0.3,0.4,0.6,0.7,0.672251,1, , ,3,82,1,2,1,6,0.5,1
10, test,7, probe,15,4,2,4,2,0.7,0.4, left,1,0.3,0.4,0.6,0.7,0.9061322,0,89.24752808,1.4499771,3,82,2,2,1,6,0.5,1
10, test,7, no_probe,16,2,1,1,2,0.4,0.3, right,2,0.3,0.4,0.6,0.7,0.5603852,1, , ,4,83,1,3,1,6,0.5,1
10, test,7, no_probe,17,4,3,3,4,0.7,0.6, right,2,0.3,0.4,0.6,0.7,0.751786,1, , ,5,84,2,3,1,6,0.5,1
10, test,7, probe,18,4,3,3,4,0.7,0.6, right,2,0.3,0.4,0.6,0.7,0.7192896,1,91.72573853,2.0833185,6,85,3,3,1,6,0.5,1
10, test,7, no_probe,19,2,3,3,2,0.4,0.6, right,2,0.3,0.4,0.6,0.7,0.8399404,1, , ,7,86,1,3,1,6,0.5,1
10, test,7, no_probe,20,2,3,3,2,0.4,0.6, right,2,0.3,0.4,0.6,0.7,0.4202487,0, , ,7,86,2,3,1,6,0.5,1
10, test,7, probe,21,1,3,3,1,0.3,0.6, right,2,0.3,0.4,0.6,0.7,0.7676798,1,96.56399536,2.3499574,8,87,3,3,1,6,0.5,1
10, test,7, no_probe,22,1,2,2,1,0.3,0.4, right,2,0.3,0.4,0.6,0.7,0.587152,1, , ,9,88,1,2,1,6,0.5,1
10, test,7, probe,23,1,4,4,1,0.3,0.7, right,2,0.3,0.4,0.6,0.7,0.5527395,1,93.7706604,1.5332914,10,89,2,2,1,6,0.5,1
10, test,7, no_probe,24,3,2,2,3,0.6,0.4, right,2,0.3,0.4,0.6,0.7,0.4307649,0, , ,10,89,1,3,1,6,0.5,1
10, test,7, no_probe,25,2,1,1,2,0.4,0.3, right,2,0.3,0.4,0.6,0.7,0.4150976,1, , ,11,90,2,3,1,6,0.5,1
10, test,8, no_probe,1,3,2,2,3,0.6,0.4, right,2,0.3,0.4,0.6,0.7,0.3000691,1, , ,1,91,1,2,1,6,0.5,1
10, test,8, probe,2,3,2,2,3,0.6,0.4, right,2,0.3,0.4,0.6,0.7,0.5266698,1,97.34939575,1.5500059,2,92,2,2,1,6,0.5,1
10, test,8, no_probe,3,2,4,4,2,0.4,0.7, right,2,0.3,0.4,0.6,0.7,0.3433214,1, , ,3,93,1,2,1,6,0.5,1
10, test,8, probe,4,1,4,4,1,0.3,0.7, right,2,0.3,0.4,0.6,0.7,0.4161882,0,93.30526733,1.4332982,3,93,2,2,1,6,0.5,1
10, test,8, no_probe,5,2,3,3,2,0.4,0.6, right,2,0.3,0.4,0.6,0.7,0.3016367,0, , ,3,93,1,2,1,6,0.5,1
10, test,8, probe,6,1,2,2,1,0.3,0.4, right,2,0.3,0.4,0.6,0.7,0.335241,1,94.77526855,1.4999406,4,94,2,2,1,6,0.5,1
10, test,8, no_probe,7,4,3,3,4,0.7,0.6, right,2,0.3,0.4,0.6,0.7,0.6140057,0, , ,4,94,1,2,1,6,0.5,1
10, test,8, probe,8,3,1,3,1,0.6,0.3, left,1,0.3,0.4,0.6,0.7,0.4664358,1,98.92321777,1.8666513,5,95,2,2,1,6,0.5,1
10, test,8, no_probe,9,3,1,1,3,0.6,0.3, right,2,0.3,0.4,0.6,0.7,0.5787938,1, , ,6,96,1,3,1,6,0.5,1
10, test,8, no_probe,10,2,4,4,2,0.4,0.7, right,2,0.3,0.4,0.6,0.7,0.6746974,0, , ,6,96,2,3,1,6,0.5,1
10, test,8, probe,11,3,2,2,3,0.6,0.4, right,2,0.3,0.4,0.6,0.7,0.7495138,1,93.71469116,3.8165947,7,97,3,3,1,6,0.5,1
10, test,8, no_probe,12,3,4,4,3,0.6,0.7, right,2,0.3,0.4,0.6,0.7,0.4155649,1, , ,8,98,1,2,1,6,0.5,1
10, test,8, probe,13,2,1,1,2,0.4,0.3, right,2,0.3,0.4,0.6,0.7,0.6848355,1,94.2833252,1.6333159,9,99,2,2,1,6,0.5,1
10, test,8, no_probe,14,3,4,4,3,0.6,0.7, right,2,0.3,0.4,0.6,0.7,0.5602273,0, , ,9,99,1,2,1,6,0.5,1
10, test,8, probe,15,1,4,4,1,0.3,0.7, right,2,0.3,0.4,0.6,0.7,0.3905262,1,97.40353394,2.6333445,10,100,2,2,1,6,0.5,1
10, test,8, no_probe,16,4,2,2,4,0.7,0.4, right,2,0.3,0.4,0.6,0.7,0.5821092,0, , ,10,100,1,2,1,6,0.5,1
10, test,8, probe,17,3,1,1,3,0.6,0.3, right,2,0.3,0.4,0.6,0.7,0.391446,1,99.99728394,3.1999503,11,101,2,2,1,6,0.5,1
10, test,8, no_probe,18,2,4,4,2,0.4,0.7, right,2,0.3,0.4,0.6,0.7,0.428141,0, , ,11,101,1,3,1,6,0.5,1
10, test,8, no_probe,19,2,4,4,2,0.4,0.7, right,2,0.3,0.4,0.6,0.7,0.2490012,0, , ,11,101,2,3,1,6,0.5,1
10, test,8, probe,20,2,1,1,2,0.4,0.3, right,2,0.3,0.4,0.6,0.7,0.8877091,0,85.64889526,1.5500203,11,101,3,3,1,6,0.5,1
10, test,8, no_probe,21,3,2,3,2,0.6,0.4, left,1,0.3,0.4,0.6,0.7,0.9629386,1, , ,12,102,1,2,1,6,0.5,1
10, test,8, probe,22,2,4,2,4,0.4,0.7, left,1,0.3,0.4,0.6,0.7,0.7413109,0,49.9987793,0.6666604,12,102,2,2,1,6,0.5,1
10, test,8, no_probe,23,3,1,1,3,0.6,0.3, right,2,0.3,0.4,0.6,0.7,1.5986325,1, , ,13,103,1,2,1,6,0.5,1
10, test,8, probe,24,2,3,3,2,0.4,0.6, right,2,0.3,0.4,0.6,0.7,1.4027131,1,78.61480713,1.3333098,14,104,2,2,1,6,0.5,1
10, test,8, no_probe,25,2,4,4,2,0.4,0.7, right,2,0.3,0.4,0.6,0.7,1.07706,0, , ,14,104,1,3,1,6,0.5,1
