subject, block_type, block, thought probe, trial, chosen, unchosen, offer_left_image, offer_right_image, exp_value_chosen, exp_value_unchosen, choice_location, choice_key, exp_value1, exp_value2, exp_value3, exp_value4, RT, reward, vas, RT_vas, coins_per_block, coins_per_task, count_to_prob, ntrial_to_prob, ITI_duration,RT_deadline,choice_feedback_duration,outcome_duration
63,practice,1, no_probe,1,2,4,4,2,0.4,0.7, right,2,0.3,0.4,0.6,0.7,0.7176274,0, , ,0,0,1,2,1,6,0.5,1
63,practice,1, probe,2,4,2,4,2,0.7,0.4, left,1,0.3,0.4,0.6,0.7,1.3541284,1,99.99545288,4.8499331,1,1,2,2,1,6,0.5,1
63,practice,1, no_probe,3,1,2,2,1,0.3,0.4, right,2,0.3,0.4,0.6,0.7,0.422487,1, , ,2,2,1,3,1,6,0.5,1
63,practice,1, no_probe,4,1,4,1,4,0.3,0.7, left,1,0.3,0.4,0.6,0.7,1.0536861,0, , ,2,2,2,3,1,6,0.5,1
63,practice,1, probe,5,4,2,2,4,0.7,0.4, right,2,0.3,0.4,0.6,0.7,1.0267364,0,99.99728394,4.783275,2,2,3,3,1,6,0.5,1
63,practice,1, no_probe,6,4,2,4,2,0.7,0.4, left,1,0.3,0.4,0.6,0.7,0.3821511,1, , ,3,3,1,3,1,6,0.5,1
63, test,1, no_probe,1,3,1,3,1,0.6,0.3, left,1,0.3,0.4,0.6,0.7,0.3601969,0, , ,0,3,1,2,1,6,0.5,1
63, test,1, probe,2,2,3,3,2,0.4,0.6, right,2,0.3,0.4,0.6,0.7,1.2851188,1,99.99902344,3.1499108,1,4,2,2,1,6,0.5,1
63, test,1, no_probe,3,2,1,2,1,0.4,0.3, left,1,0.3,0.4,0.6,0.7,0.4956541,1, , ,2,5,1,2,1,6,0.5,1
63, test,1, probe,4,2,1,2,1,0.4,0.3, left,1,0.3,0.4,0.6,0.7,0.3293634,1,99.99969482,2.3833117,3,6,2,2,1,6,0.5,1
63, test,1, no_probe,5,4,1,1,4,0.7,0.3, right,2,0.3,0.4,0.6,0.7,0.5118821,1, , ,4,7,1,3,1,6,0.5,1
63, test,1, no_probe,6,1,3,1,3,0.3,0.6, left,1,0.3,0.4,0.6,0.7,1.3483937,0, , ,4,7,2,3,1,6,0.5,1
63, test,1, probe,7,2,3,2,3,0.4,0.6, left,1,0.3,0.4,0.6,0.7,1.0693415,0,92.89202881,3.3832867,4,7,3,3,1,6,0.5,1
63, test,1, no_probe,8,4,3,4,3,0.7,0.6, left,1,0.3,0.4,0.6,0.7,1.1467366,1, , ,5,8,1,3,1,6,0.5,1
63, test,1, no_probe,9,2,1,1,2,0.4,0.3, right,2,0.3,0.4,0.6,0.7,0.6027265,0, , ,5,8,2,3,1,6,0.5,1
63, test,1, probe,10,2,1,2,1,0.4,0.3, left,1,0.3,0.4,0.6,0.7,0.9516858,0,89.98126221,1.7332977,5,8,3,3,1,6,0.5,1
63, test,1, no_probe,11,4,2,4,2,0.7,0.4, left,1,0.3,0.4,0.6,0.7,0.8970595,0, , ,5,8,1,3,1,6,0.5,1
63, test,1, no_probe,12,4,1,1,4,0.7,0.3, right,2,0.3,0.4,0.6,0.7,0.6379859,0, , ,5,8,2,3,1,6,0.5,1
63, test,1, probe,13,1,3,3,1,0.3,0.6, right,2,0.3,0.4,0.6,0.7,0.8648508,0,96.64535522,2.3333209,5,8,3,3,1,6,0.5,1
63, test,1, no_probe,14,2,1,2,1,0.4,0.3, left,1,0.3,0.4,0.6,0.7,0.441032,0, , ,5,8,1,3,1,6,0.5,1
63, test,1, no_probe,15,3,4,4,3,0.6,0.7, right,2,0.3,0.4,0.6,0.7,1.1528807,0, , ,5,8,2,3,1,6,0.5,1
63, test,1, probe,16,2,3,3,2,0.4,0.6, right,2,0.3,0.4,0.6,0.7,0.3534463,0,98.31393433,2.1999926,5,8,3,3,1,6,0.5,1
63, test,1, no_probe,17,4,1,1,4,0.7,0.3, right,2,0.3,0.4,0.6,0.7,0.3234592,1, , ,6,9,1,2,1,6,0.5,1
63, test,1, probe,18,4,2,4,2,0.7,0.4, left,1,0.3,0.4,0.6,0.7,0.3241409,1,99.99978638,1.7332818,7,10,2,2,1,6,0.5,1
63, test,1, no_probe,19,2,3,2,3,0.4,0.6, left,1,0.3,0.4,0.6,0.7,0.3545951,1, , ,8,11,1,2,1,6,0.5,1
63, test,1, probe,20,2,1,2,1,0.4,0.3, left,1,0.3,0.4,0.6,0.7,0.3175601,0,98.91860962,1.7832464,8,11,2,2,1,6,0.5,1
63, test,1, no_probe,21,3,2,2,3,0.6,0.4, right,2,0.3,0.4,0.6,0.7,0.4178196,1, , ,9,12,1,3,1,6,0.5,1
63, test,1, no_probe,22,2,1,2,1,0.4,0.3, left,1,0.3,0.4,0.6,0.7,0.6624882,1, , ,10,13,2,3,1,6,0.5,1
63, test,1, probe,23,2,1,2,1,0.4,0.3, left,1,0.3,0.4,0.6,0.7,0.6621061,0,97.95565796,1.7666376,10,13,3,3,1,6,0.5,1
63, test,1, no_probe,24,4,3,4,3,0.7,0.6, left,1,0.3,0.4,0.6,0.7,0.3604415,1, , ,11,14,1,3,1,6,0.5,1
63, test,1, no_probe,25,4,3,4,3,0.7,0.6, left,1,0.3,0.4,0.6,0.7,0.6470513,1, , ,12,15,2,3,1,6,0.5,1
63, test,2, no_probe,1,3,4,4,3,0.6,0.7, right,2,0.3,0.4,0.6,0.7,0.1961712,1, , ,1,16,1,3,1,6,0.5,1
63, test,2, no_probe,2,2,1,1,2,0.4,0.3, right,2,0.3,0.4,0.6,0.7,0.9082671,1, , ,2,17,2,3,1,6,0.5,1
63, test,2, probe,3,2,3,2,3,0.4,0.6, left,1,0.3,0.4,0.6,0.7,0.6658171,1,99.99978638,2.5495783,3,18,3,3,1,6,0.5,1
63, test,2, no_probe,4,1,3,3,1,0.3,0.6, right,2,0.3,0.4,0.6,0.7,0.787797,0, , ,3,18,1,2,1,6,0.5,1
63, test,2, probe,5,2,4,4,2,0.4,0.7, right,2,0.3,0.4,0.6,0.7,0.4189047,1,99.73052979,1.3666469,4,19,2,2,1,6,0.5,1
63, test,2, no_probe,6,2,4,2,4,0.4,0.7, left,1,0.3,0.4,0.6,0.7,0.2928074,1, , ,5,20,1,3,1,6,0.5,1
63, test,2, no_probe,7,2,1,2,1,0.4,0.3, left,1,0.3,0.4,0.6,0.7,0.3429777,1, , ,6,21,2,3,1,6,0.5,1
63, test,2, probe,8,2,3,3,2,0.4,0.6, right,2,0.3,0.4,0.6,0.7,0.3824446,1,99.99975586,1.4999652,7,22,3,3,1,6,0.5,1
63, test,2, no_probe,9,3,4,3,4,0.6,0.7, left,1,0.3,0.4,0.6,0.7,0.8302713,1, , ,8,23,1,3,1,6,0.5,1
63, test,2, no_probe,10,4,1,4,1,0.7,0.3, left,1,0.3,0.4,0.6,0.7,0.775935,1, , ,9,24,2,3,1,6,0.5,1
63, test,2, probe,11,2,3,3,2,0.4,0.6, right,2,0.3,0.4,0.6,0.7,0.7615042,0,99.10440063,1.9499715,9,24,3,3,1,6,0.5,1
63, test,2, no_probe,12,2,1,1,2,0.4,0.3, right,2,0.3,0.4,0.6,0.7,0.362265,0, , ,9,24,1,2,1,6,0.5,1
63, test,2, probe,13,1,2,2,1,0.3,0.4, right,2,0.3,0.4,0.6,0.7,0.6246592,0,98.81274414,2.6833098,9,24,2,2,1,6,0.5,1
63, test,2, no_probe,14,3,4,4,3,0.6,0.7, right,2,0.3,0.4,0.6,0.7,0.6968272,0, , ,9,24,1,2,1,6,0.5,1
63, test,2, probe,15,2,1,2,1,0.4,0.3, left,1,0.3,0.4,0.6,0.7,0.3617791,0,85.20236206,1.766677,9,24,2,2,1,6,0.5,1
63, test,2, no_probe,16,4,3,4,3,0.7,0.6, left,1,0.3,0.4,0.6,0.7,0.813158,1, , ,10,25,1,3,1,6,0.5,1
63, test,2, no_probe,17,2,4,4,2,0.4,0.7, right,2,0.3,0.4,0.6,0.7,0.6297815,1, , ,11,26,2,3,1,6,0.5,1
63, test,2, probe,18,4,1,4,1,0.7,0.3, left,1,0.3,0.4,0.6,0.7,0.7002627,1,99.99975586,1.5499566,12,27,3,3,1,6,0.5,1
63, test,2, no_probe,19,4,3,4,3,0.7,0.6, left,1,0.3,0.4,0.6,0.7,0.6759892,0, , ,12,27,1,2,1,6,0.5,1
63, test,2, probe,20,3,1,1,3,0.6,0.3, right,2,0.3,0.4,0.6,0.7,0.3385522,1,99.99984741,1.616614,13,28,2,2,1,6,0.5,1
63, test,2, no_probe,21,3,1,3,1,0.6,0.3, left,1,0.3,0.4,0.6,0.7,0.3204009,0, , ,13,28,1,2,1,6,0.5,1
63, test,2, probe,22,4,3,4,3,0.7,0.6, left,1,0.3,0.4,0.6,0.7,0.6850143,1,97.41583252,1.7999728,14,29,2,2,1,6,0.5,1
63, test,2, no_probe,23,4,2,2,4,0.7,0.4, right,2,0.3,0.4,0.6,0.7,0.2977564,1, , ,15,30,1,2,1,6,0.5,1
63, test,2, probe,24,4,1,1,4,0.7,0.3, right,2,0.3,0.4,0.6,0.7,0.5711046,1,99.99981689,1.51665,16,31,2,2,1,6,0.5,1
63, test,2, no_probe,25,2,4,4,2,0.4,0.7, right,2,0.3,0.4,0.6,0.7,0.7757537,1, , ,17,32,1,3,1,6,0.5,1
63, test,3, no_probe,1,3,2,2,3,0.6,0.4, right,2,0.3,0.4,0.6,0.7,0.3996968,0, , ,0,32,1,2,1,6,0.5,1
63, test,3, probe,2,2,1,1,2,0.4,0.3, right,2,0.3,0.4,0.6,0.7,0.3714404,0,70.94540405,2.1666588,0,32,2,2,1,6,0.5,1
63, test,3, no_probe,3,4,3,3,4,0.7,0.6, right,2,0.3,0.4,0.6,0.7,0.4622406,0, , ,0,32,1,2,1,6,0.5,1
63, test,3, probe,4,3,2,3,2,0.6,0.4, left,1,0.3,0.4,0.6,0.7,0.6529436,0,75.67700195,1.1333345,0,32,2,2,1,6,0.5,1
63, test,3, no_probe,5,3,1,3,1,0.6,0.3, left,1,0.3,0.4,0.6,0.7,0.4191347,1, , ,1,33,1,2,1,6,0.5,1
63, test,3, probe,6,4,3,4,3,0.7,0.6, left,1,0.3,0.4,0.6,0.7,0.6262643,0,70.7701416,1.3999837,1,33,2,2,1,6,0.5,1
63, test,3, no_probe,7,4,3,3,4,0.7,0.6, right,2,0.3,0.4,0.6,0.7,0.310424,1, , ,2,34,1,2,1,6,0.5,1
63, test,3, probe,8,1,3,3,1,0.3,0.6, right,2,0.3,0.4,0.6,0.7,0.5271698,0,79.71972656,1.5499774,2,34,2,2,1,6,0.5,1
63, test,3, no_probe,9,3,1,3,1,0.6,0.3, left,1,0.3,0.4,0.6,0.7,0.2493497,1, , ,3,35,1,3,1,6,0.5,1
63, test,3, no_probe,10,3,2,3,2,0.6,0.4, left,1,0.3,0.4,0.6,0.7,0.2699759,1, , ,4,36,2,3,1,6,0.5,1
63, test,3, probe,11,3,4,4,3,0.6,0.7, right,2,0.3,0.4,0.6,0.7,0.4344699,1,99.99981689,1.3833088,5,37,3,3,1,6,0.5,1
63, test,3, no_probe,12,2,1,2,1,0.4,0.3, left,1,0.3,0.4,0.6,0.7,0.7752675,1, , ,6,38,1,3,1,6,0.5,1
63, test,3, no_probe,13,3,1,1,3,0.6,0.3, right,2,0.3,0.4,0.6,0.7,1.0302636,1, , ,7,39,2,3,1,6,0.5,1
63, test,3, probe,14,3,1,1,3,0.6,0.3, right,2,0.3,0.4,0.6,0.7,0.4446569,1,99.99984741,1.5166738,8,40,3,3,1,6,0.5,1
63, test,3, no_probe,15,2,1,1,2,0.4,0.3, right,2,0.3,0.4,0.6,0.7,0.6516376,1, , ,9,41,1,2,1,6,0.5,1
63, test,3, probe,16,2,3,2,3,0.4,0.6, left,1,0.3,0.4,0.6,0.7,0.4019286,1,99.99981689,1.6999441,10,42,2,2,1,6,0.5,1
63, test,3, no_probe,17,2,4,2,4,0.4,0.7, left,1,0.3,0.4,0.6,0.7,0.6230027,1, , ,11,43,1,2,1,6,0.5,1
63, test,3, probe,18,3,1,1,3,0.6,0.3, right,2,0.3,0.4,0.6,0.7,0.2393834,1,99.99978638,1.2166513,12,44,2,2,1,6,0.5,1
63, test,3, no_probe,19,2,1,1,2,0.4,0.3, right,2,0.3,0.4,0.6,0.7,1.1256054,1, , ,13,45,1,2,1,6,0.5,1
63, test,3, probe,20,4,1,1,4,0.7,0.3, right,2,0.3,0.4,0.6,0.7,0.7625936,1,98.02127075,1.1833134,14,46,2,2,1,6,0.5,1
63, test,3, no_probe,21,3,1,1,3,0.6,0.3, right,2,0.3,0.4,0.6,0.7,0.7241156,1, , ,15,47,1,3,1,6,0.5,1
63, test,3, no_probe,22,3,1,1,3,0.6,0.3, right,2,0.3,0.4,0.6,0.7,0.688244,1, , ,16,48,2,3,1,6,0.5,1
63, test,3, probe,23,1,4,4,1,0.3,0.7, right,2,0.3,0.4,0.6,0.7,1.7427504,0,89.00643921,1.6332897,16,48,3,3,1,6,0.5,1
63, test,3, no_probe,24,2,3,2,3,0.4,0.6, left,1,0.3,0.4,0.6,0.7,0.2282812,1, , ,17,49,1,3,1,6,0.5,1
63, test,3, no_probe,25,3,4,4,3,0.6,0.7, right,2,0.3,0.4,0.6,0.7,0.9468433,0, , ,17,49,2,3,1,6,0.5,1
63, test,4, no_probe,1,3,2,3,2,0.6,0.4, left,1,0.3,0.4,0.6,0.7,0.5186111,1, , ,1,50,1,3,1,6,0.5,1
63, test,4, no_probe,2,1,2,2,1,0.3,0.4, right,2,0.3,0.4,0.6,0.7,0.5193617,0, , ,1,50,2,3,1,6,0.5,1
63, test,4, probe,3,2,1,2,1,0.4,0.3, left,1,0.3,0.4,0.6,0.7,0.7152336,0,86.62121582,1.2663205,1,50,3,3,1,6,0.5,1
63, test,4, no_probe,4,3,4,3,4,0.6,0.7, left,1,0.3,0.4,0.6,0.7,0.3176948,0, , ,1,50,1,3,1,6,0.5,1
63, test,4, no_probe,5,2,4,2,4,0.4,0.7, left,1,0.3,0.4,0.6,0.7,0.6659932,0, , ,1,50,2,3,1,6,0.5,1
63, test,4, probe,6,4,1,1,4,0.7,0.3, right,2,0.3,0.4,0.6,0.7,0.3686394,1,92.29205322,1.1999845,2,51,3,3,1,6,0.5,1
63, test,4, no_probe,7,3,2,2,3,0.6,0.4, right,2,0.3,0.4,0.6,0.7,0.4577101,1, , ,3,52,1,3,1,6,0.5,1
63, test,4, no_probe,8,3,2,3,2,0.6,0.4, left,1,0.3,0.4,0.6,0.7,0.6010307,0, , ,3,52,2,3,1,6,0.5,1
63, test,4, probe,9,3,1,3,1,0.6,0.3, left,1,0.3,0.4,0.6,0.7,0.6095851,1,94.82333374,1.3002217,4,53,3,3,1,6,0.5,1
63, test,4, no_probe,10,1,2,2,1,0.3,0.4, right,2,0.3,0.4,0.6,0.7,0.7864282,0, , ,4,53,1,3,1,6,0.5,1
63, test,4, no_probe,11,4,3,3,4,0.7,0.6, right,2,0.3,0.4,0.6,0.7,0.4572454,0, , ,4,53,2,3,1,6,0.5,1
63, test,4, probe,12,4,2,2,4,0.7,0.4, right,2,0.3,0.4,0.6,0.7,0.8359744,1,70.46414185,2.6499718,5,54,3,3,1,6,0.5,1
63, test,4, no_probe,13,3,1,3,1,0.6,0.3, left,1,0.3,0.4,0.6,0.7,0.3323884,0, , ,5,54,1,2,1,6,0.5,1
63, test,4, probe,14,4,2,4,2,0.7,0.4, left,1,0.3,0.4,0.6,0.7,1.4813361,1,71.33551025,2.4166704,6,55,2,2,1,6,0.5,1
63, test,4, no_probe,15,4,2,2,4,0.7,0.4, right,2,0.3,0.4,0.6,0.7,0.393315,1, , ,7,56,1,2,1,6,0.5,1
63, test,4, probe,16,3,1,1,3,0.6,0.3, right,2,0.3,0.4,0.6,0.7,0.4789932,0,64.72714233,1.6166487,7,56,2,2,1,6,0.5,1
63, test,4, no_probe,17,3,2,3,2,0.6,0.4, left,1,0.3,0.4,0.6,0.7,0.3630385,1, , ,8,57,1,3,1,6,0.5,1
63, test,4, no_probe,18,1,3,1,3,0.3,0.6, left,1,0.3,0.4,0.6,0.7,0.657741,1, , ,9,58,2,3,1,6,0.5,1
63, test,4, probe,19,3,4,4,3,0.6,0.7, right,2,0.3,0.4,0.6,0.7,0.377621,1,79.32415771,1.5000101,10,59,3,3,1,6,0.5,1
63, test,4, no_probe,20,2,4,4,2,0.4,0.7, right,2,0.3,0.4,0.6,0.7,0.5939989,1, , ,11,60,1,3,1,6,0.5,1
63, test,4, no_probe,21,3,2,2,3,0.6,0.4, right,2,0.3,0.4,0.6,0.7,0.5965517,1, , ,12,61,2,3,1,6,0.5,1
63, test,4, probe,22,1,4,1,4,0.3,0.7, left,1,0.3,0.4,0.6,0.7,0.7047939,0,76.94085693,0.9999871,12,61,3,3,1,6,0.5,1
63, test,4, no_probe,23,2,4,4,2,0.4,0.7, right,2,0.3,0.4,0.6,0.7,0.3127231,0, , ,12,61,1,3,1,6,0.5,1
63, test,4, no_probe,24,3,4,3,4,0.6,0.7, left,1,0.3,0.4,0.6,0.7,0.6537003,0, , ,12,61,2,3,1,6,0.5,1
63, test,4, probe,25,3,1,3,1,0.6,0.3, left,1,0.3,0.4,0.6,0.7,0.4664069,1,93.70751953,1.7499487,13,62,3,3,1,6,0.5,1
63, test,5, no_probe,1,1,2,2,1,0.3,0.4, right,2,0.3,0.4,0.6,0.7,0.2514568,0, , ,0,62,1,3,1,6,0.5,1
63, test,5, no_probe,2,4,3,4,3,0.7,0.6, left,1,0.3,0.4,0.6,0.7,0.2751914,1, , ,1,63,2,3,1,6,0.5,1
63, test,5, probe,3,4,1,4,1,0.7,0.3, left,1,0.3,0.4,0.6,0.7,0.3128064,1,82.95227051,1.6162478,2,64,3,3,1,6,0.5,1
63, test,5, no_probe,4,4,3,3,4,0.7,0.6, right,2,0.3,0.4,0.6,0.7,0.284069,1, , ,3,65,1,2,1,6,0.5,1
63, test,5, probe,5,4,1,4,1,0.7,0.3, left,1,0.3,0.4,0.6,0.7,0.5660302,1,99.99966431,1.4666481,4,66,2,2,1,6,0.5,1
63, test,5, no_probe,6,4,1,4,1,0.7,0.3, left,1,0.3,0.4,0.6,0.7,0.2885071,1, , ,5,67,1,2,1,6,0.5,1
63, test,5, probe,7,3,1,1,3,0.6,0.3, right,2,0.3,0.4,0.6,0.7,0.3139737,1,99.99972534,1.3833197,6,68,2,2,1,6,0.5,1
63, test,5, no_probe,8,4,1,4,1,0.7,0.3, left,1,0.3,0.4,0.6,0.7,1.0592474,0, , ,6,68,1,2,1,6,0.5,1
63, test,5, probe,9,2,4,2,4,0.4,0.7, left,1,0.3,0.4,0.6,0.7,0.9612355,0,99.99969482,2.3833075,6,68,2,2,1,6,0.5,1
63, test,5, no_probe,10,4,1,4,1,0.7,0.3, left,1,0.3,0.4,0.6,0.7,0.3078241,1, , ,7,69,1,2,1,6,0.5,1
63, test,5, probe,11,4,2,2,4,0.7,0.4, right,2,0.3,0.4,0.6,0.7,0.4729256,0,89.68405151,1.7499736,7,69,2,2,1,6,0.5,1
63, test,5, no_probe,12,2,1,1,2,0.4,0.3, right,2,0.3,0.4,0.6,0.7,0.3291008,0, , ,7,69,1,2,1,6,0.5,1
63, test,5, probe,13,3,2,3,2,0.6,0.4, left,1,0.3,0.4,0.6,0.7,1.0042715,0,77.60501099,1.1166406,7,69,2,2,1,6,0.5,1
63, test,5, no_probe,14,2,1,2,1,0.4,0.3, left,1,0.3,0.4,0.6,0.7,1.772328,0, , ,7,69,1,3,1,6,0.5,1
63, test,5, no_probe,15,4,2,4,2,0.7,0.4, left,1,0.3,0.4,0.6,0.7,0.3750677,0, , ,7,69,2,3,1,6,0.5,1
63, test,5, probe,16,1,2,1,2,0.3,0.4, left,1,0.3,0.4,0.6,0.7,0.5768147,1,94.33343506,1.716656,8,70,3,3,1,6,0.5,1
63, test,5, no_probe,17,3,2,2,3,0.6,0.4, right,2,0.3,0.4,0.6,0.7,1.1632215,0, , ,8,70,1,3,1,6,0.5,1
63, test,5, no_probe,18,3,2,3,2,0.6,0.4, left,1,0.3,0.4,0.6,0.7,0.6933368,1, , ,9,71,2,3,1,6,0.5,1
63, test,5, probe,19,4,3,4,3,0.7,0.6, left,1,0.3,0.4,0.6,0.7,0.498517,1,99.99969482,1.6000004,10,72,3,3,1,6,0.5,1
63, test,5, no_probe,20,4,3,3,4,0.7,0.6, right,2,0.3,0.4,0.6,0.7,0.7987151,1, , ,11,73,1,3,1,6,0.5,1
63, test,5, no_probe,21,1,2,1,2,0.3,0.4, left,1,0.3,0.4,0.6,0.7,0.3174495,0, , ,11,73,2,3,1,6,0.5,1
63, test,5, probe,22,1,3,1,3,0.3,0.6, left,1,0.3,0.4,0.6,0.7,0.8605166,1,99.99945068,2.0999755,12,74,3,3,1,6,0.5,1
63, test,5, no_probe,23,3,2,3,2,0.6,0.4, left,1,0.3,0.4,0.6,0.7,0.6042937,1, , ,13,75,1,3,1,6,0.5,1
63, test,5, no_probe,24,1,4,1,4,0.3,0.7, left,1,0.3,0.4,0.6,0.7,0.2966507,1, , ,14,76,2,3,1,6,0.5,1
63, test,5, probe,25,4,2,2,4,0.7,0.4, right,2,0.3,0.4,0.6,0.7,0.5186331,1,99.99978638,1.2833287,15,77,3,3,1,6,0.5,1
63, test,6, no_probe,1,4,2,4,2,0.7,0.4, left,1,0.3,0.4,0.6,0.7,0.7632561,1, , ,1,78,1,3,1,6,0.5,1
63, test,6, no_probe,2,3,2,2,3,0.6,0.4, right,2,0.3,0.4,0.6,0.7,0.6817188,0, , ,1,78,2,3,1,6,0.5,1
63, test,6, probe,3,1,3,3,1,0.3,0.6, right,2,0.3,0.4,0.6,0.7,0.5075047,1,97.97817993,1.9163039,2,79,3,3,1,6,0.5,1
63, test,6, no_probe,4,4,2,2,4,0.7,0.4, right,2,0.3,0.4,0.6,0.7,0.4146785,1, , ,3,80,1,2,1,6,0.5,1
63, test,6, probe,5,1,3,3,1,0.3,0.6, right,2,0.3,0.4,0.6,0.7,0.5356107,1,99.99975586,1.5166393,4,81,2,2,1,6,0.5,1
63, test,6, no_probe,6,4,3,4,3,0.7,0.6, left,1,0.3,0.4,0.6,0.7,0.6182116,1, , ,5,82,1,2,1,6,0.5,1
63, test,6, probe,7,1,2,2,1,0.3,0.4, right,2,0.3,0.4,0.6,0.7,0.2507124,1,99.99981689,1.3166105,6,83,2,2,1,6,0.5,1
63, test,6, no_probe,8,1,3,3,1,0.3,0.6, right,2,0.3,0.4,0.6,0.7,0.2565923,0, , ,6,83,1,2,1,6,0.5,1
63, test,6, probe,9,4,2,4,2,0.7,0.4, left,1,0.3,0.4,0.6,0.7,0.3753955,0,94.44338989,1.6833176,6,83,2,2,1,6,0.5,1
63, test,6, no_probe,10,3,4,3,4,0.6,0.7, left,1,0.3,0.4,0.6,0.7,0.8335698,1, , ,7,84,1,2,1,6,0.5,1
63, test,6, probe,11,3,4,4,3,0.6,0.7, right,2,0.3,0.4,0.6,0.7,0.5168107,0,85.746521,1.0999792,7,84,2,2,1,6,0.5,1
63, test,6, no_probe,12,4,2,2,4,0.7,0.4, right,2,0.3,0.4,0.6,0.7,0.6814897,0, , ,7,84,1,2,1,6,0.5,1
63, test,6, probe,13,2,4,4,2,0.4,0.7, right,2,0.3,0.4,0.6,0.7,0.2826739,0,99.61593628,1.6999486,7,84,2,2,1,6,0.5,1
63, test,6, no_probe,14,2,3,2,3,0.4,0.6, left,1,0.3,0.4,0.6,0.7,0.2918391,0, , ,7,84,1,2,1,6,0.5,1
63, test,6, probe,15,4,3,4,3,0.7,0.6, left,1,0.3,0.4,0.6,0.7,0.2776886,0,96.84317017,1.4833024,7,84,2,2,1,6,0.5,1
63, test,6, no_probe,16,4,3,3,4,0.7,0.6, right,2,0.3,0.4,0.6,0.7,0.3284938,1, , ,8,85,1,3,1,6,0.5,1
63, test,6, no_probe,17,4,1,4,1,0.7,0.3, left,1,0.3,0.4,0.6,0.7,0.2966583,0, , ,8,85,2,3,1,6,0.5,1
63, test,6, probe,18,1,4,4,1,0.3,0.7, right,2,0.3,0.4,0.6,0.7,0.3052914,1,99.99978638,1.2833313,9,86,3,3,1,6,0.5,1
63, test,6, no_probe,19,1,3,1,3,0.3,0.6, left,1,0.3,0.4,0.6,0.7,0.4580713,0, , ,9,86,1,2,1,6,0.5,1
63, test,6, probe,20,4,2,2,4,0.7,0.4, right,2,0.3,0.4,0.6,0.7,1.0925791,1,99.99981689,1.6499759,10,87,2,2,1,6,0.5,1
63, test,6, no_probe,21,1,2,2,1,0.3,0.4, right,2,0.3,0.4,0.6,0.7,0.4635239,1, , ,11,88,1,2,1,6,0.5,1
63, test,6, probe,22,1,3,3,1,0.3,0.6, right,2,0.3,0.4,0.6,0.7,0.2909119,1,100,1.5666346,12,89,2,2,1,6,0.5,1
63, test,6, no_probe,23,4,2,4,2,0.7,0.4, left,1,0.3,0.4,0.6,0.7,0.7798749,1, , ,13,90,1,2,1,6,0.5,1
63, test,6, probe,24,4,3,4,3,0.7,0.6, left,1,0.3,0.4,0.6,0.7,0.6793417,0,99.99966431,2.7832771,13,90,2,2,1,6,0.5,1
63, test,6, no_probe,25,4,2,2,4,0.7,0.4, right,2,0.3,0.4,0.6,0.7,0.9672287,1, , ,14,91,1,3,1,6,0.5,1
63, test,7, no_probe,1,3,1,1,3,0.6,0.3, right,2,0.3,0.4,0.6,0.7,0.3409898,1, , ,1,92,1,3,1,6,0.5,1
63, test,7, no_probe,2,2,1,2,1,0.4,0.3, left,1,0.3,0.4,0.6,0.7,0.6779712,0, , ,1,92,2,3,1,6,0.5,1
63, test,7, probe,3,3,1,3,1,0.6,0.3, left,1,0.3,0.4,0.6,0.7,0.2877763,1,99.99963379,1.3496677,2,93,3,3,1,6,0.5,1
63, test,7, no_probe,4,2,1,2,1,0.4,0.3, left,1,0.3,0.4,0.6,0.7,0.5216911,0, , ,2,93,1,2,1,6,0.5,1
63, test,7, probe,5,1,2,2,1,0.3,0.4, right,2,0.3,0.4,0.6,0.7,0.3266492,1,99.99978638,1.383282,3,94,2,2,1,6,0.5,1
63, test,7, no_probe,6,4,2,2,4,0.7,0.4, right,2,0.3,0.4,0.6,0.7,0.738249,1, , ,4,95,1,3,1,6,0.5,1
63, test,7, no_probe,7,4,2,4,2,0.7,0.4, left,1,0.3,0.4,0.6,0.7,1.0186424,1, , ,5,96,2,3,1,6,0.5,1
63, test,7, probe,8,4,2,2,4,0.7,0.4, right,2,0.3,0.4,0.6,0.7,0.2717666,0,99.99978638,1.3166355,5,96,3,3,1,6,0.5,1
63, test,7, no_probe,9,2,4,4,2,0.4,0.7, right,2,0.3,0.4,0.6,0.7,0.5911422,0, , ,5,96,1,2,1,6,0.5,1
63, test,7, probe,10,4,2,2,4,0.7,0.4, right,2,0.3,0.4,0.6,0.7,0.4580549,0,99.99978638,1.9166095,5,96,2,2,1,6,0.5,1
63, test,7, no_probe,11,1,4,4,1,0.3,0.7, right,2,0.3,0.4,0.6,0.7,0.5796429,0, , ,5,96,1,3,1,6,0.5,1
63, test,7, no_probe,12,4,1,4,1,0.7,0.3, left,1,0.3,0.4,0.6,0.7,0.3099272,1, , ,6,97,2,3,1,6,0.5,1
63, test,7, probe,13,3,2,3,2,0.6,0.4, left,1,0.3,0.4,0.6,0.7,0.7238021,0,94.92510986,2.0166305,6,97,3,3,1,6,0.5,1
63, test,7, no_probe,14,3,2,2,3,0.6,0.4, right,2,0.3,0.4,0.6,0.7,1.1501009,0, , ,6,97,1,3,1,6,0.5,1
63, test,7, no_probe,15,4,3,4,3,0.7,0.6, left,1,0.3,0.4,0.6,0.7,0.9094823,1, , ,7,98,2,3,1,6,0.5,1
63, test,7, probe,16,3,1,3,1,0.6,0.3, left,1,0.3,0.4,0.6,0.7,1.3867425,1,99.99975586,1.6663251,8,99,3,3,1,6,0.5,1
63, test,7, no_probe,17,1,2,1,2,0.3,0.4, left,1,0.3,0.4,0.6,0.7,0.7477813,1, , ,9,100,1,3,1,6,0.5,1
63, test,7, no_probe,18,3,2,2,3,0.6,0.4, right,2,0.3,0.4,0.6,0.7,0.6723387,1, , ,10,101,2,3,1,6,0.5,1
63, test,7, probe,19,3,2,2,3,0.6,0.4, right,2,0.3,0.4,0.6,0.7,0.2821835,1,99.99972534,1.4499458,11,102,3,3,1,6,0.5,1
63, test,7, no_probe,20,4,1,1,4,0.7,0.3, right,2,0.3,0.4,0.6,0.7,0.6457451,1, , ,12,103,1,2,1,6,0.5,1
63, test,7, probe,21,3,4,4,3,0.6,0.7, right,2,0.3,0.4,0.6,0.7,0.5240747,1,99.99963379,1.766676,13,104,2,2,1,6,0.5,1
63, test,7, no_probe,22,3,4,4,3,0.6,0.7, right,2,0.3,0.4,0.6,0.7,0.3216352,0, , ,13,104,1,2,1,6,0.5,1
63, test,7, probe,23,4,1,1,4,0.7,0.3, right,2,0.3,0.4,0.6,0.7,0.433284,0,99.99984741,1.4666579,13,104,2,2,1,6,0.5,1
63, test,7, no_probe,24,3,1,3,1,0.6,0.3, left,1,0.3,0.4,0.6,0.7,0.4614775,0, , ,13,104,1,2,1,6,0.5,1
63, test,7, probe,25,4,2,4,2,0.7,0.4, left,1,0.3,0.4,0.6,0.7,1.0571452,0,99.99978638,1.6833299,13,104,2,2,1,6,0.5,1
63, test,8, no_probe,1,4,1,1,4,0.7,0.3, right,2,0.3,0.4,0.6,0.7,0.2948736,1, , ,1,105,1,2,1,6,0.5,1
63, test,8, probe,2,2,1,2,1,0.4,0.3, left,1,0.3,0.4,0.6,0.7,0.6119024,0,99.29434204,1.5329715,1,105,2,2,1,6,0.5,1
63, test,8, no_probe,3,3,2,2,3,0.6,0.4, right,2,0.3,0.4,0.6,0.7,0.545638,0, , ,1,105,1,2,1,6,0.5,1
63, test,8, probe,4,1,3,3,1,0.3,0.6, right,2,0.3,0.4,0.6,0.7,0.7420906,0,97.34048462,1.5666344,1,105,2,2,1,6,0.5,1
63, test,8, no_probe,5,2,1,1,2,0.4,0.3, right,2,0.3,0.4,0.6,0.7,1.0347249,1, , ,2,106,1,3,1,6,0.5,1
63, test,8, no_probe,6,2,1,1,2,0.4,0.3, right,2,0.3,0.4,0.6,0.7,0.7935633,1, , ,3,107,2,3,1,6,0.5,1
63, test,8, probe,7,4,2,4,2,0.7,0.4, left,1,0.3,0.4,0.6,0.7,0.2927492,1,99.99984741,1.2999669,4,108,3,3,1,6,0.5,1
63, test,8, no_probe,8,4,1,1,4,0.7,0.3, right,2,0.3,0.4,0.6,0.7,0.4279102,1, , ,5,109,1,3,1,6,0.5,1
63, test,8, no_probe,9,2,4,4,2,0.4,0.7, right,2,0.3,0.4,0.6,0.7,0.4762928,0, , ,5,109,2,3,1,6,0.5,1
63, test,8, probe,10,4,2,4,2,0.7,0.4, left,1,0.3,0.4,0.6,0.7,0.2634706,1,99.99984741,1.1833606,6,110,3,3,1,6,0.5,1
63, test,8, no_probe,11,4,2,4,2,0.7,0.4, left,1,0.3,0.4,0.6,0.7,0.2574903,1, , ,7,111,1,2,1,6,0.5,1
63, test,8, probe,12,4,3,3,4,0.7,0.6, right,2,0.3,0.4,0.6,0.7,0.2805408,1,99.99975586,1.2999838,8,112,2,2,1,6,0.5,1
63, test,8, no_probe,13,2,1,2,1,0.4,0.3, left,1,0.3,0.4,0.6,0.7,0.8856246,1, , ,9,113,1,2,1,6,0.5,1
63, test,8, probe,14,2,1,2,1,0.4,0.3, left,1,0.3,0.4,0.6,0.7,0.4468121,0,99.99975586,1.5666268,9,113,2,2,1,6,0.5,1
63, test,8, no_probe,15,2,3,3,2,0.4,0.6, right,2,0.3,0.4,0.6,0.7,0.6752647,1, , ,10,114,1,3,1,6,0.5,1
63, test,8, no_probe,16,2,3,2,3,0.4,0.6, left,1,0.3,0.4,0.6,0.7,0.5449435,0, , ,10,114,2,3,1,6,0.5,1
63, test,8, probe,17,3,1,3,1,0.6,0.3, left,1,0.3,0.4,0.6,0.7,1.1374078,1,93.69226074,1.749979,11,115,3,3,1,6,0.5,1
63, test,8, no_probe,18,3,1,1,3,0.6,0.3, right,2,0.3,0.4,0.6,0.7,0.4263001,1, , ,12,116,1,2,1,6,0.5,1
63, test,8, probe,19,4,1,1,4,0.7,0.3, right,2,0.3,0.4,0.6,0.7,0.6297075,1,91.60375977,1.5999837,13,117,2,2,1,6,0.5,1
63, test,8, no_probe,20,3,1,1,3,0.6,0.3, right,2,0.3,0.4,0.6,0.7,1.00856,0, , ,13,117,1,2,1,6,0.5,1
63, test,8, probe,21,2,3,2,3,0.4,0.6, left,1,0.3,0.4,0.6,0.7,0.6298986,0,87.58294678,1.6666781,13,117,2,2,1,6,0.5,1
63, test,8, no_probe,22,4,3,4,3,0.7,0.6, left,1,0.3,0.4,0.6,0.7,0.3751238,1, , ,14,118,1,3,1,6,0.5,1
63, test,8, no_probe,23,2,3,2,3,0.4,0.6, left,1,0.3,0.4,0.6,0.7,0.5894297,0, , ,14,118,2,3,1,6,0.5,1
63, test,8, probe,24,1,2,2,1,0.3,0.4, right,2,0.3,0.4,0.6,0.7,0.5260818,0,72.42254639,2.0166528,14,118,3,3,1,6,0.5,1
63, test,8, no_probe,25,3,2,3,2,0.6,0.4, left,1,0.3,0.4,0.6,0.7,0.5460937,1, , ,15,119,1,3,1,6,0.5,1
