subject, block_type, block, thought probe, trial, chosen, unchosen, offer_left_image, offer_right_image, exp_value_chosen, exp_value_unchosen, choice_location, choice_key, exp_value1, exp_value2, exp_value3, exp_value4, RT, reward, vas, RT_vas, coins_per_block, coins_per_task, count_to_prob, ntrial_to_prob, ITI_duration,RT_deadline,choice_feedback_duration,outcome_duration
26,practice,1, no_probe,1,3,2,3,2,0.6,0.4, left,1,0.3,0.4,0.6,0.7,1.2467077,0, , ,0,0,1,3,1,6,0.5,1
26,practice,1, no_probe,2,1,3,3,1,0.3,0.6, right,2,0.3,0.4,0.6,0.7,0.8143626,0, , ,0,0,2,3,1,6,0.5,1
26,practice,1, probe,3,3,4,3,4,0.6,0.7, left,1,0.3,0.4,0.6,0.7,0.6952857,1,98.41293335,5.0162574,1,1,3,3,1,6,0.5,1
26,practice,1, no_probe,4,2,3,3,2,0.4,0.6, right,2,0.3,0.4,0.6,0.7,1.2428022,0, , ,1,1,1,3,1,6,0.5,1
26,practice,1, no_probe,5,3,4,4,3,0.6,0.7, right,2,0.3,0.4,0.6,0.7,1.0029801,0, , ,1,1,2,3,1,6,0.5,1
26,practice,1, probe,6,3,2,3,2,0.6,0.4, left,1,0.3,0.4,0.6,0.7,1.0988732,1,99.99835205,3.7166353,2,2,3,3,1,6,0.5,1
26, test,1, no_probe,1,3,4,3,4,0.6,0.7, left,1,0.3,0.4,0.6,0.7,0.9357535,1, , ,1,3,1,2,1,6,0.5,1
26, test,1, probe,2,3,4,3,4,0.6,0.7, left,1,0.3,0.4,0.6,0.7,0.6040419,1,99.99914551,2.450002,2,4,2,2,1,6,0.5,1
26, test,1, no_probe,3,3,2,3,2,0.6,0.4, left,1,0.3,0.4,0.6,0.7,0.6303149,1, , ,3,5,1,2,1,6,0.5,1
26, test,1, probe,4,4,1,1,4,0.7,0.3, right,2,0.3,0.4,0.6,0.7,1.109178,1,99.99841309,2.7499563,4,6,2,2,1,6,0.5,1
26, test,1, no_probe,5,2,4,2,4,0.4,0.7, left,1,0.3,0.4,0.6,0.7,1.2317792,1, , ,5,7,1,2,1,6,0.5,1
26, test,1, probe,6,1,4,4,1,0.3,0.7, right,2,0.3,0.4,0.6,0.7,1.4348099,0,99.99890137,2.4499747,5,7,2,2,1,6,0.5,1
26, test,1, no_probe,7,1,3,1,3,0.3,0.6, left,1,0.3,0.4,0.6,0.7,1.8118005,0, , ,5,7,1,3,1,6,0.5,1
26, test,1, no_probe,8,1,4,4,1,0.3,0.7, right,2,0.3,0.4,0.6,0.7,0.8765894,1, , ,6,8,2,3,1,6,0.5,1
26, test,1, probe,9,3,4,3,4,0.6,0.7, left,1,0.3,0.4,0.6,0.7,0.8728292,0,99.99630737,4.0165999,6,8,3,3,1,6,0.5,1
26, test,1, no_probe,10,2,3,2,3,0.4,0.6, left,1,0.3,0.4,0.6,0.7,1.3077814,0, , ,6,8,1,2,1,6,0.5,1
26, test,1, probe,11,3,2,3,2,0.6,0.4, left,1,0.3,0.4,0.6,0.7,0.7227617,0,99.99963379,2.2499688,6,8,2,2,1,6,0.5,1
26, test,1, no_probe,12,2,1,1,2,0.4,0.3, right,2,0.3,0.4,0.6,0.7,1.6672008,0, , ,6,8,1,2,1,6,0.5,1
26, test,1, probe,13,4,3,4,3,0.7,0.6, left,1,0.3,0.4,0.6,0.7,1.282372,1,99.99963379,2.1832508,7,9,2,2,1,6,0.5,1
26, test,1, no_probe,14,3,2,3,2,0.6,0.4, left,1,0.3,0.4,0.6,0.7,0.815311,1, , ,8,10,1,3,1,6,0.5,1
26, test,1, no_probe,15,3,2,2,3,0.6,0.4, right,2,0.3,0.4,0.6,0.7,1.9569689,0, , ,8,10,2,3,1,6,0.5,1
26, test,1, probe,16,1,4,1,4,0.3,0.7, left,1,0.3,0.4,0.6,0.7,0.8073925,0,99.99972534,1.8666338,8,10,3,3,1,6,0.5,1
26, test,1, no_probe,17,1,2,2,1,0.3,0.4, right,2,0.3,0.4,0.6,0.7,1.3603207,1, , ,9,11,1,2,1,6,0.5,1
26, test,1, probe,18,1,2,1,2,0.3,0.4, left,1,0.3,0.4,0.6,0.7,1.5559539,0,99.99966431,1.7999734,9,11,2,2,1,6,0.5,1
26, test,1, no_probe,19,3,4,3,4,0.6,0.7, left,1,0.3,0.4,0.6,0.7,0.6908013,1, , ,10,12,1,3,1,6,0.5,1
26, test,1, no_probe,20,1,2,2,1,0.3,0.4, right,2,0.3,0.4,0.6,0.7,1.3917447,0, , ,10,12,2,3,1,6,0.5,1
26, test,1, probe,21,4,2,4,2,0.7,0.4, left,1,0.3,0.4,0.6,0.7,1.3232753,1,99.99969482,4.6999663,11,13,3,3,1,6,0.5,1
26, test,1, no_probe,22,3,1,3,1,0.6,0.3, left,1,0.3,0.4,0.6,0.7,1.0493879,1, , ,12,14,1,2,1,6,0.5,1
26, test,1, probe,23,2,1,2,1,0.4,0.3, left,1,0.3,0.4,0.6,0.7,1.0174021,1,99.9994812,1.9333402,13,15,2,2,1,6,0.5,1
26, test,1, no_probe,24,2,4,2,4,0.4,0.7, left,1,0.3,0.4,0.6,0.7,1.4432559,0, , ,13,15,1,3,1,6,0.5,1
26, test,1, no_probe,25,3,2,3,2,0.6,0.4, left,1,0.3,0.4,0.6,0.7,1.2591213,0, , ,13,15,2,3,1,6,0.5,1
26, test,2, no_probe,1,1,3,1,3,0.3,0.6, left,1,0.3,0.4,0.6,0.7,1.3102067,0, , ,0,15,1,2,1,6,0.5,1
26, test,2, probe,2,2,4,2,4,0.4,0.7, left,1,0.3,0.4,0.6,0.7,0.7885111,1,99.99978638,1.7999539,1,16,2,2,1,6,0.5,1
26, test,2, no_probe,3,3,4,3,4,0.6,0.7, left,1,0.3,0.4,0.6,0.7,1.3375081,0, , ,1,16,1,2,1,6,0.5,1
26, test,2, probe,4,4,3,3,4,0.7,0.6, right,2,0.3,0.4,0.6,0.7,1.1485013,1,99.99945068,1.9332922,2,17,2,2,1,6,0.5,1
26, test,2, no_probe,5,4,1,4,1,0.7,0.3, left,1,0.3,0.4,0.6,0.7,1.8383255,1, , ,3,18,1,3,1,6,0.5,1
26, test,2, no_probe,6,2,1,2,1,0.4,0.3, left,1,0.3,0.4,0.6,0.7,1.1861954,0, , ,3,18,2,3,1,6,0.5,1
26, test,2, probe,7,2,4,2,4,0.4,0.7, left,1,0.3,0.4,0.6,0.7,0.9003276,0,99.99963379,1.8666788,3,18,3,3,1,6,0.5,1
26, test,2, no_probe,8,4,3,4,3,0.7,0.6, left,1,0.3,0.4,0.6,0.7,1.3943108,1, , ,4,19,1,2,1,6,0.5,1
26, test,2, probe,9,2,3,2,3,0.4,0.6, left,1,0.3,0.4,0.6,0.7,1.3470103,0,99.99530029,5.2666012,4,19,2,2,1,6,0.5,1
26, test,2, no_probe,10,1,3,3,1,0.3,0.6, right,2,0.3,0.4,0.6,0.7,1.837417,0, , ,4,19,1,3,1,6,0.5,1
26, test,2, no_probe,11,4,1,4,1,0.7,0.3, left,1,0.3,0.4,0.6,0.7,1.1220835,0, , ,4,19,2,3,1,6,0.5,1
26, test,2, probe,12,1,4,1,4,0.3,0.7, left,1,0.3,0.4,0.6,0.7,1.3062607,0,99.99954224,1.9166516,4,19,3,3,1,6,0.5,1
26, test,2, no_probe,13,4,3,3,4,0.7,0.6, right,2,0.3,0.4,0.6,0.7,1.9858005,0, , ,4,19,1,2,1,6,0.5,1
26, test,2, probe,14,2,3,3,2,0.4,0.6, right,2,0.3,0.4,0.6,0.7,1.0201244,0,99.99887085,2.3499305,4,19,2,2,1,6,0.5,1
26, test,2, no_probe,15,4,3,3,4,0.7,0.6, right,2,0.3,0.4,0.6,0.7,1.3328466,1, , ,5,20,1,2,1,6,0.5,1
26, test,2, probe,16,1,3,1,3,0.3,0.6, left,1,0.3,0.4,0.6,0.7,1.8749012,1,99.99969482,1.8833021,6,21,2,2,1,6,0.5,1
26, test,2, no_probe,17,3,1,3,1,0.6,0.3, left,1,0.3,0.4,0.6,0.7,2.0957249,0, , ,6,21,1,3,1,6,0.5,1
26, test,2, no_probe,18,2,3,3,2,0.4,0.6, right,2,0.3,0.4,0.6,0.7,1.3447006,0, , ,6,21,2,3,1,6,0.5,1
26, test,2, probe,19,3,4,3,4,0.6,0.7, left,1,0.3,0.4,0.6,0.7,1.9768002,1,99.99969482,1.5332939,7,22,3,3,1,6,0.5,1
26, test,2, no_probe,20,1,2,1,2,0.3,0.4, left,1,0.3,0.4,0.6,0.7,1.9330641,0, , ,7,22,1,2,1,6,0.5,1
26, test,2, probe,21,2,1,1,2,0.4,0.3, right,2,0.3,0.4,0.6,0.7,0.768943,1,99.99972534,1.6166465,8,23,2,2,1,6,0.5,1
26, test,2, no_probe,22,2,4,4,2,0.4,0.7, right,2,0.3,0.4,0.6,0.7,2.070236,1, , ,9,24,1,3,1,6,0.5,1
26, test,2, no_probe,23,2,4,4,2,0.4,0.7, right,2,0.3,0.4,0.6,0.7,1.1639722,0, , ,9,24,2,3,1,6,0.5,1
26, test,2, probe,24,3,4,4,3,0.6,0.7, right,2,0.3,0.4,0.6,0.7,1.7959898,1,99.99963379,1.6833445,10,25,3,3,1,6,0.5,1
26, test,2, no_probe,25,2,4,4,2,0.4,0.7, right,2,0.3,0.4,0.6,0.7,1.5271154,0, , ,10,25,1,3,1,6,0.5,1
26, test,3, no_probe,1,4,3,3,4,0.7,0.6, right,2,0.3,0.4,0.6,0.7,1.3541052,1, , ,1,26,1,2,1,6,0.5,1
26, test,3, probe,2,3,1,3,1,0.6,0.3, left,1,0.3,0.4,0.6,0.7,1.2495945,0,100,1.4999577,1,26,2,2,1,6,0.5,1
26, test,3, no_probe,3,1,3,3,1,0.3,0.6, right,2,0.3,0.4,0.6,0.7,1.108133,0, , ,1,26,1,2,1,6,0.5,1
26, test,3, probe,4,2,1,2,1,0.4,0.3, left,1,0.3,0.4,0.6,0.7,1.9766821,1,99.99975586,1.6000117,2,27,2,2,1,6,0.5,1
26, test,3, no_probe,5,2,1,1,2,0.4,0.3, right,2,0.3,0.4,0.6,0.7,1.9789971,1, , ,3,28,1,2,1,6,0.5,1
26, test,3, probe,6,2,1,1,2,0.4,0.3, right,2,0.3,0.4,0.6,0.7,0.8204522,0,99.99963379,1.7332975,3,28,2,2,1,6,0.5,1
26, test,3, no_probe,7,2,1,2,1,0.4,0.3, left,1,0.3,0.4,0.6,0.7,1.2144671,0, , ,3,28,1,3,1,6,0.5,1
26, test,3, no_probe,8,2,1,1,2,0.4,0.3, right,2,0.3,0.4,0.6,0.7,1.4353693,0, , ,3,28,2,3,1,6,0.5,1
26, test,3, probe,9,4,3,4,3,0.7,0.6, left,1,0.3,0.4,0.6,0.7,0.9033179,0,78.7868042,2.7999691,3,28,3,3,1,6,0.5,1
26, test,3, no_probe,10,1,3,3,1,0.3,0.6, right,2,0.3,0.4,0.6,0.7,1.3075055,0, , ,3,28,1,3,1,6,0.5,1
26, test,3, no_probe,11,2,1,1,2,0.4,0.3, right,2,0.3,0.4,0.6,0.7,0.9365916,1, , ,4,29,2,3,1,6,0.5,1
26, test,3, probe,12,4,3,4,3,0.7,0.6, left,1,0.3,0.4,0.6,0.7,1.3567239,1,99.99963379,2.2999915,5,30,3,3,1,6,0.5,1
26, test,3, no_probe,13,2,1,2,1,0.4,0.3, left,1,0.3,0.4,0.6,0.7,1.6379078,1, , ,6,31,1,2,1,6,0.5,1
26, test,3, probe,14,4,2,2,4,0.7,0.4, right,2,0.3,0.4,0.6,0.7,1.7106013,1,99.99981689,1.6999712,7,32,2,2,1,6,0.5,1
26, test,3, no_probe,15,2,3,3,2,0.4,0.6, right,2,0.3,0.4,0.6,0.7,1.5431357,0, , ,7,32,1,3,1,6,0.5,1
26, test,3, no_probe,16,4,1,1,4,0.7,0.3, right,2,0.3,0.4,0.6,0.7,1.2217896,1, , ,8,33,2,3,1,6,0.5,1
26, test,3, probe,17,2,1,1,2,0.4,0.3, right,2,0.3,0.4,0.6,0.7,1.2751607,1,99.99975586,1.5999666,9,34,3,3,1,6,0.5,1
26, test,3, no_probe,18,2,1,1,2,0.4,0.3, right,2,0.3,0.4,0.6,0.7,1.2898255,1, , ,10,35,1,2,1,6,0.5,1
26, test,3, probe,19,4,1,1,4,0.7,0.3, right,2,0.3,0.4,0.6,0.7,1.5027813,1,99.99966431,1.6832845,11,36,2,2,1,6,0.5,1
26, test,3, no_probe,20,2,1,1,2,0.4,0.3, right,2,0.3,0.4,0.6,0.7,0.7081394,0, , ,11,36,1,3,1,6,0.5,1
26, test,3, no_probe,21,1,3,1,3,0.3,0.6, left,1,0.3,0.4,0.6,0.7,1.2122003,0, , ,11,36,2,3,1,6,0.5,1
26, test,3, probe,22,1,2,2,1,0.3,0.4, right,2,0.3,0.4,0.6,0.7,1.4249717,0,99.99972534,1.6666558,11,36,3,3,1,6,0.5,1
26, test,3, no_probe,23,2,4,4,2,0.4,0.7, right,2,0.3,0.4,0.6,0.7,0.8294451,1, , ,12,37,1,2,1,6,0.5,1
26, test,3, probe,24,2,1,2,1,0.4,0.3, left,1,0.3,0.4,0.6,0.7,1.237742,0,99.99960327,1.5666524,12,37,2,2,1,6,0.5,1
26, test,3, no_probe,25,1,2,2,1,0.3,0.4, right,2,0.3,0.4,0.6,0.7,1.602807,0, , ,12,37,1,2,1,6,0.5,1
26, test,4, no_probe,1,2,3,2,3,0.4,0.6, left,1,0.3,0.4,0.6,0.7,0.8655137,0, , ,0,37,1,2,1,6,0.5,1
26, test,4, probe,2,3,1,3,1,0.6,0.3, left,1,0.3,0.4,0.6,0.7,0.8361276,1,99.99972534,1.6666588,1,38,2,2,1,6,0.5,1
26, test,4, no_probe,3,4,1,4,1,0.7,0.3, left,1,0.3,0.4,0.6,0.7,0.9808173,1, , ,2,39,1,2,1,6,0.5,1
26, test,4, probe,4,3,1,3,1,0.6,0.3, left,1,0.3,0.4,0.6,0.7,0.8393051,0,99.99975586,1.6166537,2,39,2,2,1,6,0.5,1
26, test,4, no_probe,5,3,4,3,4,0.6,0.7, left,1,0.3,0.4,0.6,0.7,0.7921958,0, , ,2,39,1,3,1,6,0.5,1
26, test,4, no_probe,6,4,1,4,1,0.7,0.3, left,1,0.3,0.4,0.6,0.7,0.9946929,1, , ,3,40,2,3,1,6,0.5,1
26, test,4, probe,7,2,3,2,3,0.4,0.6, left,1,0.3,0.4,0.6,0.7,1.0877564,1,99.99981689,1.5666559,4,41,3,3,1,6,0.5,1
26, test,4, no_probe,8,4,3,4,3,0.7,0.6, left,1,0.3,0.4,0.6,0.7,1.358072,1, , ,5,42,1,2,1,6,0.5,1
26, test,4, probe,9,2,3,3,2,0.4,0.6, right,2,0.3,0.4,0.6,0.7,1.289754,1,99.99945068,1.8998739,6,43,2,2,1,6,0.5,1
26, test,4, no_probe,10,2,3,2,3,0.4,0.6, left,1,0.3,0.4,0.6,0.7,0.9705644,0, , ,6,43,1,2,1,6,0.5,1
26, test,4, probe,11,4,1,1,4,0.7,0.3, right,2,0.3,0.4,0.6,0.7,1.5454933,0,99.99972534,1.6666408,6,43,2,2,1,6,0.5,1
26, test,4, no_probe,12,1,2,2,1,0.3,0.4, right,2,0.3,0.4,0.6,0.7,1.2922167,0, , ,6,43,1,3,1,6,0.5,1
26, test,4, no_probe,13,1,3,3,1,0.3,0.6, right,2,0.3,0.4,0.6,0.7,1.0620335,1, , ,7,44,2,3,1,6,0.5,1
26, test,4, probe,14,4,3,3,4,0.7,0.6, right,2,0.3,0.4,0.6,0.7,1.2779564,1,99.99981689,1.5499458,8,45,3,3,1,6,0.5,1
26, test,4, no_probe,15,1,3,3,1,0.3,0.6, right,2,0.3,0.4,0.6,0.7,1.3605703,1, , ,9,46,1,2,1,6,0.5,1
26, test,4, probe,16,2,1,1,2,0.4,0.3, right,2,0.3,0.4,0.6,0.7,1.3758835,1,99.99972534,1.7166945,10,47,2,2,1,6,0.5,1
26, test,4, no_probe,17,4,3,4,3,0.7,0.6, left,1,0.3,0.4,0.6,0.7,1.3769091,1, , ,11,48,1,2,1,6,0.5,1
26, test,4, probe,18,3,4,4,3,0.6,0.7, right,2,0.3,0.4,0.6,0.7,1.2833133,1,99.99975586,1.5999694,12,49,2,2,1,6,0.5,1
26, test,4, no_probe,19,2,3,2,3,0.4,0.6, left,1,0.3,0.4,0.6,0.7,0.8948596,1, , ,13,50,1,3,1,6,0.5,1
26, test,4, no_probe,20,1,2,1,2,0.3,0.4, left,1,0.3,0.4,0.6,0.7,2.2683835,0, , ,13,50,2,3,1,6,0.5,1
26, test,4, probe,21,2,1,2,1,0.4,0.3, left,1,0.3,0.4,0.6,0.7,2.5915949,1,99.99978638,1.4832603,14,51,3,3,1,6,0.5,1
26, test,4, no_probe,22,4,1,4,1,0.7,0.3, left,1,0.3,0.4,0.6,0.7,1.0123665,0, , ,14,51,1,2,1,6,0.5,1
26, test,4, probe,23,2,4,2,4,0.4,0.7, left,1,0.3,0.4,0.6,0.7,1.1619567,0,99.99972534,1.649989,14,51,2,2,1,6,0.5,1
26, test,4, no_probe,24,2,1,1,2,0.4,0.3, right,2,0.3,0.4,0.6,0.7,2.4294308,0, , ,14,51,1,2,1,6,0.5,1
26, test,4, probe,25,3,2,3,2,0.6,0.4, left,1,0.3,0.4,0.6,0.7,1.8650547,0,77.43719482,1.9000034,14,51,2,2,1,6,0.5,1
26, test,5, no_probe,1,3,2,2,3,0.6,0.4, right,2,0.3,0.4,0.6,0.7,1.483303,1, , ,1,52,1,3,1,6,0.5,1
26, test,5, no_probe,2,1,2,2,1,0.3,0.4, right,2,0.3,0.4,0.6,0.7,1.0421502,0, , ,1,52,2,3,1,6,0.5,1
26, test,5, probe,3,2,1,2,1,0.4,0.3, left,1,0.3,0.4,0.6,0.7,0.9534842,1,99.99969482,1.6329665,2,53,3,3,1,6,0.5,1
26, test,5, no_probe,4,3,1,1,3,0.6,0.3, right,2,0.3,0.4,0.6,0.7,1.0738653,1, , ,3,54,1,3,1,6,0.5,1
26, test,5, no_probe,5,3,2,2,3,0.6,0.4, right,2,0.3,0.4,0.6,0.7,1.0373678,1, , ,4,55,2,3,1,6,0.5,1
26, test,5, probe,6,3,4,4,3,0.6,0.7, right,2,0.3,0.4,0.6,0.7,0.6683822,1,99.99981689,1.5999628,5,56,3,3,1,6,0.5,1
26, test,5, no_probe,7,2,1,2,1,0.4,0.3, left,1,0.3,0.4,0.6,0.7,1.0621006,0, , ,5,56,1,3,1,6,0.5,1
26, test,5, no_probe,8,3,2,2,3,0.6,0.4, right,2,0.3,0.4,0.6,0.7,0.8369666,1, , ,6,57,2,3,1,6,0.5,1
26, test,5, probe,9,2,1,2,1,0.4,0.3, left,1,0.3,0.4,0.6,0.7,1.1364921,0,92.90332031,4.2332925,6,57,3,3,1,6,0.5,1
26, test,5, no_probe,10,4,2,2,4,0.7,0.4, right,2,0.3,0.4,0.6,0.7,1.2393976,1, , ,7,58,1,2,1,6,0.5,1
26, test,5, probe,11,3,4,3,4,0.6,0.7, left,1,0.3,0.4,0.6,0.7,1.1472595,1,96.10348511,2.9166435,8,59,2,2,1,6,0.5,1
26, test,5, no_probe,12,4,2,4,2,0.7,0.4, left,1,0.3,0.4,0.6,0.7,1.3714252,1, , ,9,60,1,3,1,6,0.5,1
26, test,5, no_probe,13,4,2,2,4,0.7,0.4, right,2,0.3,0.4,0.6,0.7,1.174523,1, , ,10,61,2,3,1,6,0.5,1
26, test,5, probe,14,3,4,3,4,0.6,0.7, left,1,0.3,0.4,0.6,0.7,1.1130481,1,99.99981689,1.6333191,11,62,3,3,1,6,0.5,1
26, test,5, no_probe,15,1,2,2,1,0.3,0.4, right,2,0.3,0.4,0.6,0.7,1.1716604,0, , ,11,62,1,2,1,6,0.5,1
26, test,5, probe,16,3,4,4,3,0.6,0.7, right,2,0.3,0.4,0.6,0.7,1.1778708,0,99.99978638,1.8166523,11,62,2,2,1,6,0.5,1
26, test,5, no_probe,17,4,3,3,4,0.7,0.6, right,2,0.3,0.4,0.6,0.7,1.2223026,1, , ,12,63,1,3,1,6,0.5,1
26, test,5, no_probe,18,4,3,3,4,0.7,0.6, right,2,0.3,0.4,0.6,0.7,0.5914702,0, , ,12,63,2,3,1,6,0.5,1
26, test,5, probe,19,2,1,1,2,0.4,0.3, right,2,0.3,0.4,0.6,0.7,1.413113,0,94.74737549,2.9166088,12,63,3,3,1,6,0.5,1
26, test,5, no_probe,20,3,1,3,1,0.6,0.3, left,1,0.3,0.4,0.6,0.7,2.1470768,1, , ,13,64,1,3,1,6,0.5,1
26, test,5, no_probe,21,4,3,3,4,0.7,0.6, right,2,0.3,0.4,0.6,0.7,0.9960064,1, , ,14,65,2,3,1,6,0.5,1
26, test,5, probe,22,3,1,3,1,0.6,0.3, left,1,0.3,0.4,0.6,0.7,1.0852456,0,99.99972534,1.7166119,14,65,3,3,1,6,0.5,1
26, test,5, no_probe,23,3,2,3,2,0.6,0.4, left,1,0.3,0.4,0.6,0.7,2.156306,0, , ,14,65,1,3,1,6,0.5,1
26, test,5, no_probe,24,4,1,4,1,0.7,0.3, left,1,0.3,0.4,0.6,0.7,1.4712479,1, , ,15,66,2,3,1,6,0.5,1
26, test,5, probe,25,4,1,1,4,0.7,0.3, right,2,0.3,0.4,0.6,0.7,1.1833545,0,99.99975586,1.6833292,15,66,3,3,1,6,0.5,1
26, test,6, no_probe,1,1,2,1,2,0.3,0.4, left,1,0.3,0.4,0.6,0.7,1.3925162,0, , ,0,66,1,2,1,6,0.5,1
26, test,6, probe,2,4,2,4,2,0.7,0.4, left,1,0.3,0.4,0.6,0.7,0.3764325,0,87.48217773,2.5166573,0,66,2,2,1,6,0.5,1
26, test,6, no_probe,3,4,3,4,3,0.7,0.6, left,1,0.3,0.4,0.6,0.7,0.8119593,1, , ,1,67,1,2,1,6,0.5,1
26, test,6, probe,4,4,1,4,1,0.7,0.3, left,1,0.3,0.4,0.6,0.7,0.9453856,1,89.9543457,1.8165756,2,68,2,2,1,6,0.5,1
26, test,6, no_probe,5,2,3,3,2,0.4,0.6, right,2,0.3,0.4,0.6,0.7,1.0502716,0, , ,2,68,1,3,1,6,0.5,1
26, test,6, no_probe,6,4,2,2,4,0.7,0.4, right,2,0.3,0.4,0.6,0.7,1.754224,0, , ,2,68,2,3,1,6,0.5,1
26, test,6, probe,7,4,1,4,1,0.7,0.3, left,1,0.3,0.4,0.6,0.7,1.1449679,1,94.41201782,2.1333141,3,69,3,3,1,6,0.5,1
26, test,6, no_probe,8,2,1,2,1,0.4,0.3, left,1,0.3,0.4,0.6,0.7,1.2422452,1, , ,4,70,1,3,1,6,0.5,1
26, test,6, no_probe,9,2,1,2,1,0.4,0.3, left,1,0.3,0.4,0.6,0.7,0.5811415,1, , ,5,71,2,3,1,6,0.5,1
26, test,6, probe,10,4,2,4,2,0.7,0.4, left,1,0.3,0.4,0.6,0.7,0.9637299,0,99.99978638,1.5666091,5,71,3,3,1,6,0.5,1
26, test,6, no_probe,11,4,1,4,1,0.7,0.3, left,1,0.3,0.4,0.6,0.7,0.92662,1, , ,6,72,1,2,1,6,0.5,1
26, test,6, probe,12,4,1,1,4,0.7,0.3, right,2,0.3,0.4,0.6,0.7,1.4115886,0,90.51449585,3.0166285,6,72,2,2,1,6,0.5,1
26, test,6, no_probe,13,3,1,1,3,0.6,0.3, right,2,0.3,0.4,0.6,0.7,0.9779974,1, , ,7,73,1,3,1,6,0.5,1
26, test,6, no_probe,14,3,4,3,4,0.6,0.7, left,1,0.3,0.4,0.6,0.7,1.1353642,1, , ,8,74,2,3,1,6,0.5,1
26, test,6, probe,15,4,1,4,1,0.7,0.3, left,1,0.3,0.4,0.6,0.7,1.1404178,1,99.99969482,1.8499393,9,75,3,3,1,6,0.5,1
26, test,6, no_probe,16,3,4,4,3,0.6,0.7, right,2,0.3,0.4,0.6,0.7,2.072186,0, , ,9,75,1,2,1,6,0.5,1
26, test,6, probe,17,2,1,2,1,0.4,0.3, left,1,0.3,0.4,0.6,0.7,1.2800372,1,92.82116699,3.1999681,10,76,2,2,1,6,0.5,1
26, test,6, no_probe,18,2,1,1,2,0.4,0.3, right,2,0.3,0.4,0.6,0.7,1.7518544,1, , ,11,77,1,3,1,6,0.5,1
26, test,6, no_probe,19,4,2,4,2,0.7,0.4, left,1,0.3,0.4,0.6,0.7,0.8276021,1, , ,12,78,2,3,1,6,0.5,1
26, test,6, probe,20,4,3,4,3,0.7,0.6, left,1,0.3,0.4,0.6,0.7,2.2593377,1,99.99981689,1.5499445,13,79,3,3,1,6,0.5,1
26, test,6, no_probe,21,2,1,2,1,0.4,0.3, left,1,0.3,0.4,0.6,0.7,1.8798966,1, , ,14,80,1,3,1,6,0.5,1
26, test,6, no_probe,22,4,1,4,1,0.7,0.3, left,1,0.3,0.4,0.6,0.7,0.9019189,1, , ,15,81,2,3,1,6,0.5,1
26, test,6, probe,23,2,1,1,2,0.4,0.3, right,2,0.3,0.4,0.6,0.7,1.947062,0,99.99969482,1.6499175,15,81,3,3,1,6,0.5,1
26, test,6, no_probe,24,2,4,2,4,0.4,0.7, left,1,0.3,0.4,0.6,0.7,1.8562898,0, , ,15,81,1,3,1,6,0.5,1
26, test,6, no_probe,25,4,2,2,4,0.7,0.4, right,2,0.3,0.4,0.6,0.7,1.4314027,1, , ,16,82,2,3,1,6,0.5,1
26, test,7, no_probe,1,2,1,1,2,0.4,0.3, right,2,0.3,0.4,0.6,0.7,0.887483,1, , ,1,83,1,2,1,6,0.5,1
26, test,7, probe,2,3,4,4,3,0.6,0.7, right,2,0.3,0.4,0.6,0.7,0.7740225,1,99.99975586,1.7000313,2,84,2,2,1,6,0.5,1
26, test,7, no_probe,3,2,4,4,2,0.4,0.7, right,2,0.3,0.4,0.6,0.7,1.7438435,1, , ,3,85,1,3,1,6,0.5,1
26, test,7, no_probe,4,3,2,3,2,0.6,0.4, left,1,0.3,0.4,0.6,0.7,1.4505505,0, , ,3,85,2,3,1,6,0.5,1
26, test,7, probe,5,2,3,3,2,0.4,0.6, right,2,0.3,0.4,0.6,0.7,0.862328,1,99.99981689,1.5499872,4,86,3,3,1,6,0.5,1
26, test,7, no_probe,6,1,4,4,1,0.3,0.7, right,2,0.3,0.4,0.6,0.7,0.8851669,1, , ,5,87,1,2,1,6,0.5,1
26, test,7, probe,7,2,4,2,4,0.4,0.7, left,1,0.3,0.4,0.6,0.7,1.7469386,1,99.99978638,1.8499859,6,88,2,2,1,6,0.5,1
26, test,7, no_probe,8,2,3,2,3,0.4,0.6, left,1,0.3,0.4,0.6,0.7,1.42702,0, , ,6,88,1,3,1,6,0.5,1
26, test,7, no_probe,9,3,1,3,1,0.6,0.3, left,1,0.3,0.4,0.6,0.7,1.9516934,0, , ,6,88,2,3,1,6,0.5,1
26, test,7, probe,10,3,2,2,3,0.6,0.4, right,2,0.3,0.4,0.6,0.7,0.7481088,0,99.99969482,2.1167039,6,88,3,3,1,6,0.5,1
26, test,7, no_probe,11,4,1,4,1,0.7,0.3, left,1,0.3,0.4,0.6,0.7,2.0845416,1, , ,7,89,1,2,1,6,0.5,1
26, test,7, probe,12,3,4,3,4,0.6,0.7, left,1,0.3,0.4,0.6,0.7,1.6399795,1,99.99978638,1.7831787,8,90,2,2,1,6,0.5,1
26, test,7, no_probe,13,2,1,2,1,0.4,0.3, left,1,0.3,0.4,0.6,0.7,2.1074362,0, , ,8,90,1,2,1,6,0.5,1
26, test,7, probe,14,2,3,3,2,0.4,0.6, right,2,0.3,0.4,0.6,0.7,1.6837783,1,99.99960327,1.8333105,9,91,2,2,1,6,0.5,1
26, test,7, no_probe,15,3,1,1,3,0.6,0.3, right,2,0.3,0.4,0.6,0.7,1.078831,1, , ,10,92,1,3,1,6,0.5,1
26, test,7, no_probe,16,1,3,1,3,0.3,0.6, left,1,0.3,0.4,0.6,0.7,1.2687907,1, , ,11,93,2,3,1,6,0.5,1
26, test,7, probe,17,3,2,3,2,0.6,0.4, left,1,0.3,0.4,0.6,0.7,1.9441453,1,99.99972534,1.8333146,12,94,3,3,1,6,0.5,1
26, test,7, no_probe,18,2,1,1,2,0.4,0.3, right,2,0.3,0.4,0.6,0.7,1.8502969,0, , ,12,94,1,2,1,6,0.5,1
26, test,7, probe,19,3,2,2,3,0.6,0.4, right,2,0.3,0.4,0.6,0.7,1.7979061,0,99.99975586,1.7166419,12,94,2,2,1,6,0.5,1
26, test,7, no_probe,20,2,3,3,2,0.4,0.6, right,2,0.3,0.4,0.6,0.7,1.7203653,0, , ,12,94,1,3,1,6,0.5,1
26, test,7, no_probe,21,3,4,3,4,0.6,0.7, left,1,0.3,0.4,0.6,0.7,0.9605102,1, , ,13,95,2,3,1,6,0.5,1
26, test,7, probe,22,1,2,1,2,0.3,0.4, left,1,0.3,0.4,0.6,0.7,1.4207063,0,99.99978638,1.7666714,13,95,3,3,1,6,0.5,1
26, test,7, no_probe,23,2,1,1,2,0.4,0.3, right,2,0.3,0.4,0.6,0.7,0.616731,1, , ,14,96,1,2,1,6,0.5,1
26, test,7, probe,24,1,4,4,1,0.3,0.7, right,2,0.3,0.4,0.6,0.7,3.1342653,0,85.52603149,1.8166445,14,96,2,2,1,6,0.5,1
26, test,7, no_probe,25,3,4,3,4,0.6,0.7, left,1,0.3,0.4,0.6,0.7,1.1672277,1, , ,15,97,1,2,1,6,0.5,1
26, test,8, no_probe,1,2,4,4,2,0.4,0.7, right,2,0.3,0.4,0.6,0.7,0.8507971,1, , ,1,98,1,2,1,6,0.5,1
26, test,8, probe,2,3,4,3,4,0.6,0.7, left,1,0.3,0.4,0.6,0.7,1.0428259,0,95.95950317,2.5499623,1,98,2,2,1,6,0.5,1
26, test,8, no_probe,3,3,1,1,3,0.6,0.3, right,2,0.3,0.4,0.6,0.7,1.0882726,1, , ,2,99,1,3,1,6,0.5,1
26, test,8, no_probe,4,4,3,3,4,0.7,0.6, right,2,0.3,0.4,0.6,0.7,0.8544439,1, , ,3,100,2,3,1,6,0.5,1
26, test,8, probe,5,2,3,3,2,0.4,0.6, right,2,0.3,0.4,0.6,0.7,1.3647352,0,99.99981689,2.0832947,3,100,3,3,1,6,0.5,1
26, test,8, no_probe,6,4,3,4,3,0.7,0.6, left,1,0.3,0.4,0.6,0.7,2.7111585,1, , ,4,101,1,3,1,6,0.5,1
26, test,8, no_probe,7,1,4,4,1,0.3,0.7, right,2,0.3,0.4,0.6,0.7,1.1199897,1, , ,5,102,2,3,1,6,0.5,1
26, test,8, probe,8,2,4,2,4,0.4,0.7, left,1,0.3,0.4,0.6,0.7,1.792599,0,99.99975586,2.0166453,5,102,3,3,1,6,0.5,1
26, test,8, no_probe,9,2,3,3,2,0.4,0.6, right,2,0.3,0.4,0.6,0.7,1.5245387,0, , ,5,102,1,3,1,6,0.5,1
26, test,8, no_probe,10,3,1,3,1,0.6,0.3, left,1,0.3,0.4,0.6,0.7,1.5610928,1, , ,6,103,2,3,1,6,0.5,1
26, test,8, probe,11,4,1,1,4,0.7,0.3, right,2,0.3,0.4,0.6,0.7,1.1081945,1,85.54675293,2.2832638,7,104,3,3,1,6,0.5,1
26, test,8, no_probe,12,4,1,4,1,0.7,0.3, left,1,0.3,0.4,0.6,0.7,0.7606135,1, , ,8,105,1,2,1,6,0.5,1
26, test,8, probe,13,4,2,2,4,0.7,0.4, right,2,0.3,0.4,0.6,0.7,0.5915174,1,85.85473633,1.8166503,9,106,2,2,1,6,0.5,1
26, test,8, no_probe,14,4,2,2,4,0.7,0.4, right,2,0.3,0.4,0.6,0.7,0.5322851,1, , ,10,107,1,3,1,6,0.5,1
26, test,8, no_probe,15,3,2,2,3,0.6,0.4, right,2,0.3,0.4,0.6,0.7,0.7530627,0, , ,10,107,2,3,1,6,0.5,1
26, test,8, probe,16,3,2,3,2,0.6,0.4, left,1,0.3,0.4,0.6,0.7,0.5678181,1,85.00332642,1.8832902,11,108,3,3,1,6,0.5,1
26, test,8, no_probe,17,3,2,2,3,0.6,0.4, right,2,0.3,0.4,0.6,0.7,0.5858348,0, , ,11,108,1,3,1,6,0.5,1
26, test,8, no_probe,18,1,2,2,1,0.3,0.4, right,2,0.3,0.4,0.6,0.7,0.6630641,0, , ,11,108,2,3,1,6,0.5,1
26, test,8, probe,19,4,1,1,4,0.7,0.3, right,2,0.3,0.4,0.6,0.7,0.5593672,1,82.63357544,1.7833175,12,109,3,3,1,6,0.5,1
26, test,8, no_probe,20,2,3,3,2,0.4,0.6, right,2,0.3,0.4,0.6,0.7,0.6174776,1, , ,13,110,1,2,1,6,0.5,1
26, test,8, probe,21,1,2,2,1,0.3,0.4, right,2,0.3,0.4,0.6,0.7,0.8450335,0,77.23138428,1.566632,13,110,2,2,1,6,0.5,1
26, test,8, no_probe,22,4,3,3,4,0.7,0.6, right,2,0.3,0.4,0.6,0.7,0.6371392,1, , ,14,111,1,3,1,6,0.5,1
26, test,8, no_probe,23,3,4,3,4,0.6,0.7, left,1,0.3,0.4,0.6,0.7,0.9892528,0, , ,14,111,2,3,1,6,0.5,1
26, test,8, probe,24,4,3,3,4,0.7,0.6, right,2,0.3,0.4,0.6,0.7,1.5829189,1,89.95236206,2.3166083,15,112,3,3,1,6,0.5,1
26, test,8, no_probe,25,1,4,1,4,0.3,0.7, left,1,0.3,0.4,0.6,0.7,1.4667313,1, , ,16,113,1,3,1,6,0.5,1
