subject, block_type, block, thought probe, trial, chosen, unchosen, offer_left_image, offer_right_image, exp_value_chosen, exp_value_unchosen, choice_location, choice_key, exp_value1, exp_value2, exp_value3, exp_value4, RT, reward, vas, RT_vas, coins_per_block, coins_per_task, count_to_prob, ntrial_to_prob, ITI_duration,RT_deadline,choice_feedback_duration,outcome_duration
1,practice,1, no_probe,1,1,3,3,1,0.3,0.6, right,2,0.3,0.4,0.6,0.7,0.4411241,0, , ,0,0,1,3,1,6,0.5,1
1,practice,1, no_probe,2,2,3,3,2,0.4,0.6, right,2,0.3,0.4,0.6,0.7,0.6424263,1, , ,1,1,2,3,1,6,0.5,1
1,practice,1, probe,3,2,1,1,2,0.4,0.3, right,2,0.3,0.4,0.6,0.7,0.4968659,0,99.99981689,1.3332754,1,1,3,3,1,6,0.5,1
1,practice,1, no_probe,4,4,3,3,4,0.7,0.6, right,2,0.3,0.4,0.6,0.7,0.7632416,1, , ,2,2,1,2,1,6,0.5,1
1,practice,1, probe,5,4,2,4,2,0.7,0.4, left,1,0.3,0.4,0.6,0.7,0.5193003,0,99.99984741,1.2166347,2,2,2,2,1,6,0.5,1
1,practice,1, no_probe,6,3,2,2,3,0.6,0.4, right,2,0.3,0.4,0.6,0.7,0.7696194,1, , ,3,3,1,2,1,6,0.5,1
1, test,1, no_probe,1,4,3,3,4,0.7,0.6, right,2,0.3,0.4,0.6,0.7,0.5815936,0, , ,0,3,1,2,1,6,0.5,1
1, test,1, probe,2,1,3,3,1,0.3,0.6, right,2,0.3,0.4,0.6,0.7,0.7280469,1,99.99975586,1.7166573,1,4,2,2,1,6,0.5,1
1, test,1, no_probe,3,1,2,2,1,0.3,0.4, right,2,0.3,0.4,0.6,0.7,0.5382234,1, , ,2,5,1,3,1,6,0.5,1
1, test,1, no_probe,4,2,4,2,4,0.4,0.7, left,1,0.3,0.4,0.6,0.7,0.8578654,1, , ,3,6,2,3,1,6,0.5,1
1, test,1, probe,5,1,3,1,3,0.3,0.6, left,1,0.3,0.4,0.6,0.7,0.9323722,0,90.44607544,1.4499809,3,6,3,3,1,6,0.5,1
1, test,1, no_probe,6,3,1,3,1,0.6,0.3, left,1,0.3,0.4,0.6,0.7,0.8731378,1, , ,4,7,1,2,1,6,0.5,1
1, test,1, probe,7,4,2,2,4,0.7,0.4, right,2,0.3,0.4,0.6,0.7,1.2433889,0,95.5411377,1.1999652,4,7,2,2,1,6,0.5,1
1, test,1, no_probe,8,4,2,4,2,0.7,0.4, left,1,0.3,0.4,0.6,0.7,0.7350541,1, , ,5,8,1,3,1,6,0.5,1
1, test,1, no_probe,9,1,2,2,1,0.3,0.4, right,2,0.3,0.4,0.6,0.7,0.8231566,0, , ,5,8,2,3,1,6,0.5,1
1, test,1, probe,10,1,4,4,1,0.3,0.7, right,2,0.3,0.4,0.6,0.7,1.7908485,0,97.38327026,1.1666496,5,8,3,3,1,6,0.5,1
1, test,1, no_probe,11,2,4,2,4,0.4,0.7, left,1,0.3,0.4,0.6,0.7,1.352577,0, , ,5,8,1,3,1,6,0.5,1
1, test,1, no_probe,12,1,2,1,2,0.3,0.4, left,1,0.3,0.4,0.6,0.7,0.9643685,1, , ,6,9,2,3,1,6,0.5,1
1, test,1, probe,13,1,2,2,1,0.3,0.4, right,2,0.3,0.4,0.6,0.7,0.2996946,1,99.80734253,1.4500061,7,10,3,3,1,6,0.5,1
1, test,1, no_probe,14,2,3,3,2,0.4,0.6, right,2,0.3,0.4,0.6,0.7,1.4130167,0, , ,7,10,1,3,1,6,0.5,1
1, test,1, no_probe,15,1,4,1,4,0.3,0.7, left,1,0.3,0.4,0.6,0.7,0.5616443,0, , ,7,10,2,3,1,6,0.5,1
1, test,1, probe,16,1,3,1,3,0.3,0.6, left,1,0.3,0.4,0.6,0.7,1.1774212,0,88.57217407,1.5332754,7,10,3,3,1,6,0.5,1
1, test,1, no_probe,17,3,2,3,2,0.6,0.4, left,1,0.3,0.4,0.6,0.7,1.2513774,1, , ,8,11,1,2,1,6,0.5,1
1, test,1, probe,18,3,1,1,3,0.6,0.3, right,2,0.3,0.4,0.6,0.7,0.6080291,0,95.0567627,1.0999441,8,11,2,2,1,6,0.5,1
1, test,1, no_probe,19,1,2,2,1,0.3,0.4, right,2,0.3,0.4,0.6,0.7,0.9397432,0, , ,8,11,1,2,1,6,0.5,1
1, test,1, probe,20,1,2,1,2,0.3,0.4, left,1,0.3,0.4,0.6,0.7,0.4399766,1,95.12567139,1.2166528,9,12,2,2,1,6,0.5,1
1, test,1, no_probe,21,4,3,3,4,0.7,0.6, right,2,0.3,0.4,0.6,0.7,1.7420666,1, , ,10,13,1,2,1,6,0.5,1
1, test,1, probe,22,4,1,1,4,0.7,0.3, right,2,0.3,0.4,0.6,0.7,0.6536928,1,91.06079102,1.4833356,11,14,2,2,1,6,0.5,1
1, test,1, no_probe,23,4,1,1,4,0.7,0.3, right,2,0.3,0.4,0.6,0.7,0.343396,1, , ,12,15,1,2,1,6,0.5,1
1, test,1, probe,24,4,3,4,3,0.7,0.6, left,1,0.3,0.4,0.6,0.7,0.8796533,1,94.18933105,2.4499496,13,16,2,2,1,6,0.5,1
1, test,1, no_probe,25,4,2,2,4,0.7,0.4, right,2,0.3,0.4,0.6,0.7,0.3951137,0, , ,13,16,1,3,1,6,0.5,1
1, test,2, no_probe,1,3,2,2,3,0.6,0.4, right,2,0.3,0.4,0.6,0.7,0.4738071,1, , ,1,17,1,3,1,6,0.5,1
1, test,2, no_probe,2,3,4,4,3,0.6,0.7, right,2,0.3,0.4,0.6,0.7,0.5128091,1, , ,2,18,2,3,1,6,0.5,1
1, test,2, probe,3,4,1,4,1,0.7,0.3, left,1,0.3,0.4,0.6,0.7,0.8291976,1,88.23248291,1.4995744,3,19,3,3,1,6,0.5,1
1, test,2, no_probe,4,3,1,1,3,0.6,0.3, right,2,0.3,0.4,0.6,0.7,0.7560736,1, , ,4,20,1,2,1,6,0.5,1
1, test,2, probe,5,3,2,2,3,0.6,0.4, right,2,0.3,0.4,0.6,0.7,0.4634634,1,82.21795654,1.6499593,5,21,2,2,1,6,0.5,1
1, test,2, no_probe,6,3,4,4,3,0.6,0.7, right,2,0.3,0.4,0.6,0.7,0.5058944,0, , ,5,21,1,3,1,6,0.5,1
1, test,2, no_probe,7,3,4,3,4,0.6,0.7, left,1,0.3,0.4,0.6,0.7,1.9645455,1, , ,6,22,2,3,1,6,0.5,1
1, test,2, probe,8,4,1,4,1,0.7,0.3, left,1,0.3,0.4,0.6,0.7,1.5629658,1,68.59661865,1.2999564,7,23,3,3,1,6,0.5,1
1, test,2, no_probe,9,3,2,2,3,0.6,0.4, right,2,0.3,0.4,0.6,0.7,0.6149504,1, , ,8,24,1,3,1,6,0.5,1
1, test,2, no_probe,10,4,2,4,2,0.7,0.4, left,1,0.3,0.4,0.6,0.7,0.6733498,1, , ,9,25,2,3,1,6,0.5,1
1, test,2, probe,11,3,2,3,2,0.6,0.4, left,1,0.3,0.4,0.6,0.7,0.6106327,1,99.83816528,1.6499594,10,26,3,3,1,6,0.5,1
1, test,2, no_probe,12,4,2,4,2,0.7,0.4, left,1,0.3,0.4,0.6,0.7,0.5694882,1, , ,11,27,1,3,1,6,0.5,1
1, test,2, no_probe,13,4,1,1,4,0.7,0.3, right,2,0.3,0.4,0.6,0.7,0.5717555,0, , ,11,27,2,3,1,6,0.5,1
1, test,2, probe,14,1,3,3,1,0.3,0.6, right,2,0.3,0.4,0.6,0.7,0.3180429,0,72.43548584,0.9333172,11,27,3,3,1,6,0.5,1
1, test,2, no_probe,15,3,2,3,2,0.6,0.4, left,1,0.3,0.4,0.6,0.7,0.528549,1, , ,12,28,1,2,1,6,0.5,1
1, test,2, probe,16,3,1,1,3,0.6,0.3, right,2,0.3,0.4,0.6,0.7,0.5004216,0,70.50006104,1.1166939,12,28,2,2,1,6,0.5,1
1, test,2, no_probe,17,3,2,3,2,0.6,0.4, left,1,0.3,0.4,0.6,0.7,1.3159216,0, , ,12,28,1,3,1,6,0.5,1
1, test,2, no_probe,18,4,2,2,4,0.7,0.4, right,2,0.3,0.4,0.6,0.7,0.2959571,1, , ,13,29,2,3,1,6,0.5,1
1, test,2, probe,19,4,2,4,2,0.7,0.4, left,1,0.3,0.4,0.6,0.7,1.0588479,1,81.20977783,1.0999664,14,30,3,3,1,6,0.5,1
1, test,2, no_probe,20,4,2,2,4,0.7,0.4, right,2,0.3,0.4,0.6,0.7,0.4930838,0, , ,14,30,1,2,1,6,0.5,1
1, test,2, probe,21,3,2,3,2,0.6,0.4, left,1,0.3,0.4,0.6,0.7,0.8778977,1,86.0642395,1.0666365,15,31,2,2,1,6,0.5,1
1, test,2, no_probe,22,1,2,1,2,0.3,0.4, left,1,0.3,0.4,0.6,0.7,1.1923774,1, , ,16,32,1,3,1,6,0.5,1
1, test,2, no_probe,23,3,4,3,4,0.6,0.7, left,1,0.3,0.4,0.6,0.7,0.8382526,1, , ,17,33,2,3,1,6,0.5,1
1, test,2, probe,24,4,2,2,4,0.7,0.4, right,2,0.3,0.4,0.6,0.7,0.5065432,1,85.96566772,1.1999688,18,34,3,3,1,6,0.5,1
1, test,2, no_probe,25,3,2,3,2,0.6,0.4, left,1,0.3,0.4,0.6,0.7,0.5310152,0, , ,18,34,1,3,1,6,0.5,1
1, test,3, no_probe,1,3,4,4,3,0.6,0.7, right,2,0.3,0.4,0.6,0.7,0.6567257,0, , ,0,34,1,2,1,6,0.5,1
1, test,3, probe,2,2,4,4,2,0.4,0.7, right,2,0.3,0.4,0.6,0.7,0.4448402,0,99.99984741,1.5166509,0,34,2,2,1,6,0.5,1
1, test,3, no_probe,3,1,2,1,2,0.3,0.4, left,1,0.3,0.4,0.6,0.7,0.3420365,0, , ,0,34,1,2,1,6,0.5,1
1, test,3, probe,4,2,3,3,2,0.4,0.6, right,2,0.3,0.4,0.6,0.7,0.8424092,1,91.27368164,1.0999826,1,35,2,2,1,6,0.5,1
1, test,3, no_probe,5,4,1,4,1,0.7,0.3, left,1,0.3,0.4,0.6,0.7,0.6403494,1, , ,2,36,1,3,1,6,0.5,1
1, test,3, no_probe,6,2,3,3,2,0.4,0.6, right,2,0.3,0.4,0.6,0.7,0.7923816,0, , ,2,36,2,3,1,6,0.5,1
1, test,3, probe,7,2,3,3,2,0.4,0.6, right,2,0.3,0.4,0.6,0.7,0.9031928,0,94.06594849,1.0833123,2,36,3,3,1,6,0.5,1
1, test,3, no_probe,8,4,3,3,4,0.7,0.6, right,2,0.3,0.4,0.6,0.7,0.5842303,0, , ,2,36,1,3,1,6,0.5,1
1, test,3, no_probe,9,1,4,4,1,0.3,0.7, right,2,0.3,0.4,0.6,0.7,0.7287001,0, , ,2,36,2,3,1,6,0.5,1
1, test,3, probe,10,3,2,3,2,0.6,0.4, left,1,0.3,0.4,0.6,0.7,0.6176933,1,99.99832153,2.5499377,3,37,3,3,1,6,0.5,1
1, test,3, no_probe,11,4,1,4,1,0.7,0.3, left,1,0.3,0.4,0.6,0.7,0.6427378,0, , ,3,37,1,2,1,6,0.5,1
1, test,3, probe,12,3,4,3,4,0.6,0.7, left,1,0.3,0.4,0.6,0.7,0.8024377,0,96.73022461,3.0666351,3,37,2,2,1,6,0.5,1
1, test,3, no_probe,13,1,4,1,4,0.3,0.7, left,1,0.3,0.4,0.6,0.7,1.1324094,0, , ,3,37,1,3,1,6,0.5,1
1, test,3, no_probe,14,4,1,1,4,0.7,0.3, right,2,0.3,0.4,0.6,0.7,0.3890707,1, , ,4,38,2,3,1,6,0.5,1
1, test,3, probe,15,4,3,4,3,0.7,0.6, left,1,0.3,0.4,0.6,0.7,0.3663199,1,95.26480103,1.2333407,5,39,3,3,1,6,0.5,1
1, test,3, no_probe,16,4,3,3,4,0.7,0.6, right,2,0.3,0.4,0.6,0.7,0.5182915,1, , ,6,40,1,3,1,6,0.5,1
1, test,3, no_probe,17,4,1,4,1,0.7,0.3, left,1,0.3,0.4,0.6,0.7,0.3043959,1, , ,7,41,2,3,1,6,0.5,1
1, test,3, probe,18,4,2,2,4,0.7,0.4, right,2,0.3,0.4,0.6,0.7,0.4733757,0,99.06872559,1.3666522,7,41,3,3,1,6,0.5,1
1, test,3, no_probe,19,1,4,4,1,0.3,0.7, right,2,0.3,0.4,0.6,0.7,0.7285616,1, , ,8,42,1,3,1,6,0.5,1
1, test,3, no_probe,20,4,2,4,2,0.7,0.4, left,1,0.3,0.4,0.6,0.7,0.4683843,1, , ,9,43,2,3,1,6,0.5,1
1, test,3, probe,21,2,3,3,2,0.4,0.6, right,2,0.3,0.4,0.6,0.7,0.7663488,1,95.81262207,1.4333031,10,44,3,3,1,6,0.5,1
1, test,3, no_probe,22,2,3,3,2,0.4,0.6, right,2,0.3,0.4,0.6,0.7,1.135081,0, , ,10,44,1,2,1,6,0.5,1
1, test,3, probe,23,4,2,4,2,0.7,0.4, left,1,0.3,0.4,0.6,0.7,0.6229072,1,91.36029053,1.2499807,11,45,2,2,1,6,0.5,1
1, test,3, no_probe,24,4,2,4,2,0.7,0.4, left,1,0.3,0.4,0.6,0.7,0.3000077,0, , ,11,45,1,3,1,6,0.5,1
1, test,3, no_probe,25,3,2,3,2,0.6,0.4, left,1,0.3,0.4,0.6,0.7,1.1533065,1, , ,12,46,2,3,1,6,0.5,1
1, test,4, no_probe,1,4,3,3,4,0.7,0.6, right,2,0.3,0.4,0.6,0.7,0.5270373,1, , ,1,47,1,2,1,6,0.5,1
1, test,4, probe,2,4,1,1,4,0.7,0.3, right,2,0.3,0.4,0.6,0.7,0.5286693,1,99.71362305,1.5999732,2,48,2,2,1,6,0.5,1
1, test,4, no_probe,3,3,1,3,1,0.6,0.3, left,1,0.3,0.4,0.6,0.7,0.478113,0, , ,2,48,1,3,1,6,0.5,1
1, test,4, no_probe,4,4,3,4,3,0.7,0.6, left,1,0.3,0.4,0.6,0.7,0.6519201,1, , ,3,49,2,3,1,6,0.5,1
1, test,4, probe,5,2,3,2,3,0.4,0.6, left,1,0.3,0.4,0.6,0.7,0.9443566,0,99.99050903,1.1999606,3,49,3,3,1,6,0.5,1
1, test,4, no_probe,6,1,2,2,1,0.3,0.4, right,2,0.3,0.4,0.6,0.7,0.4530331,0, , ,3,49,1,2,1,6,0.5,1
1, test,4, probe,7,4,3,3,4,0.7,0.6, right,2,0.3,0.4,0.6,0.7,0.3163983,0,91.3807373,1.2666809,3,49,2,2,1,6,0.5,1
1, test,4, no_probe,8,4,3,3,4,0.7,0.6, right,2,0.3,0.4,0.6,0.7,0.4782335,1, , ,4,50,1,3,1,6,0.5,1
1, test,4, no_probe,9,4,1,4,1,0.7,0.3, left,1,0.3,0.4,0.6,0.7,0.4200081,1, , ,5,51,2,3,1,6,0.5,1
1, test,4, probe,10,4,3,3,4,0.7,0.6, right,2,0.3,0.4,0.6,0.7,0.5397381,0,94.50616455,1.1166347,5,51,3,3,1,6,0.5,1
1, test,4, no_probe,11,4,3,4,3,0.7,0.6, left,1,0.3,0.4,0.6,0.7,0.3463371,1, , ,6,52,1,2,1,6,0.5,1
1, test,4, probe,12,1,3,3,1,0.3,0.6, right,2,0.3,0.4,0.6,0.7,0.7051638,0,83.0017395,1.5666212,6,52,2,2,1,6,0.5,1
1, test,4, no_probe,13,4,1,4,1,0.7,0.3, left,1,0.3,0.4,0.6,0.7,2.7843622,0, , ,6,52,1,3,1,6,0.5,1
1, test,4, no_probe,14,3,4,4,3,0.6,0.7, right,2,0.3,0.4,0.6,0.7,0.4656776,0, , ,6,52,2,3,1,6,0.5,1
1, test,4, probe,15,4,1,1,4,0.7,0.3, right,2,0.3,0.4,0.6,0.7,0.4045182,1,96.02191162,1.4333019,7,53,3,3,1,6,0.5,1
1, test,4, no_probe,16,4,3,3,4,0.7,0.6, right,2,0.3,0.4,0.6,0.7,0.411325,0, , ,7,53,1,2,1,6,0.5,1
1, test,4, probe,17,4,3,3,4,0.7,0.6, right,2,0.3,0.4,0.6,0.7,0.3847284,0,76.42199707,1.1999728,7,53,2,2,1,6,0.5,1
1, test,4, no_probe,18,2,1,2,1,0.4,0.3, left,1,0.3,0.4,0.6,0.7,0.4095593,0, , ,7,53,1,2,1,6,0.5,1
1, test,4, probe,19,4,2,4,2,0.7,0.4, left,1,0.3,0.4,0.6,0.7,0.8178851,1,94.11602783,1.1833352,8,54,2,2,1,6,0.5,1
1, test,4, no_probe,20,1,3,1,3,0.3,0.6, left,1,0.3,0.4,0.6,0.7,0.6872624,1, , ,9,55,1,3,1,6,0.5,1
1, test,4, no_probe,21,1,3,3,1,0.3,0.6, right,2,0.3,0.4,0.6,0.7,0.3763607,0, , ,9,55,2,3,1,6,0.5,1
1, test,4, probe,22,4,1,4,1,0.7,0.3, left,1,0.3,0.4,0.6,0.7,1.9473239,0,75.51303101,2.7499353,9,55,3,3,1,6,0.5,1
1, test,4, no_probe,23,1,2,1,2,0.3,0.4, left,1,0.3,0.4,0.6,0.7,0.4303647,0, , ,9,55,1,2,1,6,0.5,1
1, test,4, probe,24,1,3,3,1,0.3,0.6, right,2,0.3,0.4,0.6,0.7,0.4032893,0,72.40188599,2.0999941,9,55,2,2,1,6,0.5,1
1, test,4, no_probe,25,4,1,4,1,0.7,0.3, left,1,0.3,0.4,0.6,0.7,0.4115115,1, , ,10,56,1,3,1,6,0.5,1
1, test,5, no_probe,1,1,3,1,3,0.3,0.6, left,1,0.3,0.4,0.6,0.7,0.2699883,0, , ,0,56,1,3,1,6,0.5,1
1, test,5, no_probe,2,2,3,3,2,0.4,0.6, right,2,0.3,0.4,0.6,0.7,0.491201,0, , ,0,56,2,3,1,6,0.5,1
1, test,5, probe,3,3,1,1,3,0.6,0.3, right,2,0.3,0.4,0.6,0.7,0.4466807,1,82.26489258,0.999653,1,57,3,3,1,6,0.5,1
1, test,5, no_probe,4,2,1,1,2,0.4,0.3, right,2,0.3,0.4,0.6,0.7,0.6650399,0, , ,1,57,1,3,1,6,0.5,1
1, test,5, no_probe,5,3,1,3,1,0.6,0.3, left,1,0.3,0.4,0.6,0.7,0.2822569,0, , ,1,57,2,3,1,6,0.5,1
1, test,5, probe,6,1,2,1,2,0.3,0.4, left,1,0.3,0.4,0.6,0.7,1.276183,0,83.36102295,1.0999813,1,57,3,3,1,6,0.5,1
1, test,5, no_probe,7,4,2,2,4,0.7,0.4, right,2,0.3,0.4,0.6,0.7,0.5375229,1, , ,2,58,1,3,1,6,0.5,1
1, test,5, no_probe,8,4,1,1,4,0.7,0.3, right,2,0.3,0.4,0.6,0.7,0.2893274,1, , ,3,59,2,3,1,6,0.5,1
1, test,5, probe,9,3,1,1,3,0.6,0.3, right,2,0.3,0.4,0.6,0.7,1.4723736,0,99.99984741,1.6332829,3,59,3,3,1,6,0.5,1
1, test,5, no_probe,10,4,2,2,4,0.7,0.4, right,2,0.3,0.4,0.6,0.7,0.9405428,1, , ,4,60,1,2,1,6,0.5,1
1, test,5, probe,11,2,1,1,2,0.4,0.3, right,2,0.3,0.4,0.6,0.7,0.9528164,0,73.50201416,0.9666774,4,60,2,2,1,6,0.5,1
1, test,5, no_probe,12,4,1,4,1,0.7,0.3, left,1,0.3,0.4,0.6,0.7,1.9445653,0, , ,4,60,1,2,1,6,0.5,1
1, test,5, probe,13,4,1,4,1,0.7,0.3, left,1,0.3,0.4,0.6,0.7,0.766939,1,97.35958862,1.7499737,5,61,2,2,1,6,0.5,1
1, test,5, no_probe,14,4,2,2,4,0.7,0.4, right,2,0.3,0.4,0.6,0.7,0.5589675,1, , ,6,62,1,2,1,6,0.5,1
1, test,5, probe,15,4,1,4,1,0.7,0.3, left,1,0.3,0.4,0.6,0.7,0.3448559,0,80.22460938,1.2499716,6,62,2,2,1,6,0.5,1
1, test,5, no_probe,16,2,3,3,2,0.4,0.6, right,2,0.3,0.4,0.6,0.7,0.8266813,1, , ,7,63,1,3,1,6,0.5,1
1, test,5, no_probe,17,4,1,4,1,0.7,0.3, left,1,0.3,0.4,0.6,0.7,0.5268916,1, , ,8,64,2,3,1,6,0.5,1
1, test,5, probe,18,4,3,3,4,0.7,0.6, right,2,0.3,0.4,0.6,0.7,1.1958696,1,97.86328125,1.7166405,9,65,3,3,1,6,0.5,1
1, test,5, no_probe,19,2,1,2,1,0.4,0.3, left,1,0.3,0.4,0.6,0.7,0.6519006,1, , ,10,66,1,3,1,6,0.5,1
1, test,5, no_probe,20,2,3,2,3,0.4,0.6, left,1,0.3,0.4,0.6,0.7,0.3190537,0, , ,10,66,2,3,1,6,0.5,1
1, test,5, probe,21,4,3,3,4,0.7,0.6, right,2,0.3,0.4,0.6,0.7,0.3794864,1,95.84512329,3.7666398,11,67,3,3,1,6,0.5,1
1, test,5, no_probe,22,1,2,1,2,0.3,0.4, left,1,0.3,0.4,0.6,0.7,0.8056079,1, , ,12,68,1,3,1,6,0.5,1
1, test,5, no_probe,23,1,4,4,1,0.3,0.7, right,2,0.3,0.4,0.6,0.7,0.3350902,0, , ,12,68,2,3,1,6,0.5,1
1, test,5, probe,24,4,1,1,4,0.7,0.3, right,2,0.3,0.4,0.6,0.7,0.4812607,0,90.84835815,1.3666443,12,68,3,3,1,6,0.5,1
1, test,5, no_probe,25,2,4,4,2,0.4,0.7, right,2,0.3,0.4,0.6,0.7,0.7174524,1, , ,13,69,1,2,1,6,0.5,1
1, test,6, no_probe,1,4,1,4,1,0.7,0.3, left,1,0.3,0.4,0.6,0.7,0.4173753,1, , ,1,70,1,3,1,6,0.5,1
1, test,6, no_probe,2,2,4,4,2,0.4,0.7, right,2,0.3,0.4,0.6,0.7,0.4495246,1, , ,2,71,2,3,1,6,0.5,1
1, test,6, probe,3,4,2,4,2,0.7,0.4, left,1,0.3,0.4,0.6,0.7,0.4450122,0,95.2975769,1.599628,2,71,3,3,1,6,0.5,1
1, test,6, no_probe,4,2,1,2,1,0.4,0.3, left,1,0.3,0.4,0.6,0.7,0.4300216,1, , ,3,72,1,2,1,6,0.5,1
1, test,6, probe,5,2,3,2,3,0.4,0.6, left,1,0.3,0.4,0.6,0.7,0.3787415,0,92.44622803,1.3499712,3,72,2,2,1,6,0.5,1
1, test,6, no_probe,6,3,2,3,2,0.6,0.4, left,1,0.3,0.4,0.6,0.7,0.5527817,1, , ,4,73,1,2,1,6,0.5,1
1, test,6, probe,7,3,1,3,1,0.6,0.3, left,1,0.3,0.4,0.6,0.7,0.6135209,0,97.11853027,1.4832921,4,73,2,2,1,6,0.5,1
1, test,6, no_probe,8,4,1,1,4,0.7,0.3, right,2,0.3,0.4,0.6,0.7,0.3649007,1, , ,5,74,1,2,1,6,0.5,1
1, test,6, probe,9,2,3,3,2,0.4,0.6, right,2,0.3,0.4,0.6,0.7,0.6270997,0,92.82855225,1.6166543,5,74,2,2,1,6,0.5,1
1, test,6, no_probe,10,3,1,3,1,0.6,0.3, left,1,0.3,0.4,0.6,0.7,0.6254129,1, , ,6,75,1,3,1,6,0.5,1
1, test,6, no_probe,11,4,3,4,3,0.7,0.6, left,1,0.3,0.4,0.6,0.7,0.6035716,1, , ,7,76,2,3,1,6,0.5,1
1, test,6, probe,12,4,3,4,3,0.7,0.6, left,1,0.3,0.4,0.6,0.7,0.3242512,1,94.4380188,1.3499945,8,77,3,3,1,6,0.5,1
1, test,6, no_probe,13,4,3,4,3,0.7,0.6, left,1,0.3,0.4,0.6,0.7,0.3741941,1, , ,9,78,1,2,1,6,0.5,1
1, test,6, probe,14,4,1,1,4,0.7,0.3, right,2,0.3,0.4,0.6,0.7,0.3162531,1,97.05783081,1.4832878,10,79,2,2,1,6,0.5,1
1, test,6, no_probe,15,4,1,4,1,0.7,0.3, left,1,0.3,0.4,0.6,0.7,0.493202,0, , ,10,79,1,3,1,6,0.5,1
1, test,6, no_probe,16,2,4,4,2,0.4,0.7, right,2,0.3,0.4,0.6,0.7,0.5071576,0, , ,10,79,2,3,1,6,0.5,1
1, test,6, probe,17,4,1,4,1,0.7,0.3, left,1,0.3,0.4,0.6,0.7,1.0245389,1,90.61062622,1.1499549,11,80,3,3,1,6,0.5,1
1, test,6, no_probe,18,2,1,1,2,0.4,0.3, right,2,0.3,0.4,0.6,0.7,0.3820897,0, , ,11,80,1,3,1,6,0.5,1
1, test,6, no_probe,19,4,2,2,4,0.7,0.4, right,2,0.3,0.4,0.6,0.7,0.6035273,0, , ,11,80,2,3,1,6,0.5,1
1, test,6, probe,20,3,2,2,3,0.6,0.4, right,2,0.3,0.4,0.6,0.7,0.6278413,1,96.31344604,1.1999754,12,81,3,3,1,6,0.5,1
1, test,6, no_probe,21,2,4,4,2,0.4,0.7, right,2,0.3,0.4,0.6,0.7,0.3396354,1, , ,13,82,1,2,1,6,0.5,1
1, test,6, probe,22,2,1,2,1,0.4,0.3, left,1,0.3,0.4,0.6,0.7,0.3320804,0,93.25839233,1.566658,13,82,2,2,1,6,0.5,1
1, test,6, no_probe,23,2,3,2,3,0.4,0.6, left,1,0.3,0.4,0.6,0.7,0.6877305,0, , ,13,82,1,2,1,6,0.5,1
1, test,6, probe,24,1,3,3,1,0.3,0.6, right,2,0.3,0.4,0.6,0.7,0.2334099,0,89.72137451,1.9666421,13,82,2,2,1,6,0.5,1
1, test,6, no_probe,25,4,3,4,3,0.7,0.6, left,1,0.3,0.4,0.6,0.7,0.2930393,1, , ,14,83,1,2,1,6,0.5,1
1, test,7, no_probe,1,4,2,4,2,0.7,0.4, left,1,0.3,0.4,0.6,0.7,0.7586054,0, , ,0,83,1,2,1,6,0.5,1
1, test,7, probe,2,2,1,1,2,0.4,0.3, right,2,0.3,0.4,0.6,0.7,0.3231798,0,75.42709351,1.9166487,0,83,2,2,1,6,0.5,1
1, test,7, no_probe,3,1,3,1,3,0.3,0.6, left,1,0.3,0.4,0.6,0.7,0.2852622,1, , ,1,84,1,2,1,6,0.5,1
1, test,7, probe,4,2,4,2,4,0.4,0.7, left,1,0.3,0.4,0.6,0.7,0.8315034,1,77.00668335,1.0333067,2,85,2,2,1,6,0.5,1
1, test,7, no_probe,5,3,2,3,2,0.6,0.4, left,1,0.3,0.4,0.6,0.7,0.5316097,1, , ,3,86,1,2,1,6,0.5,1
1, test,7, probe,6,3,1,1,3,0.6,0.3, right,2,0.3,0.4,0.6,0.7,0.683929,1,67.64199829,0.966623,4,87,2,2,1,6,0.5,1
1, test,7, no_probe,7,2,1,2,1,0.4,0.3, left,1,0.3,0.4,0.6,0.7,0.7548722,0, , ,4,87,1,2,1,6,0.5,1
1, test,7, probe,8,2,3,2,3,0.4,0.6, left,1,0.3,0.4,0.6,0.7,0.2940969,1,64.29830933,0.716663,5,88,2,2,1,6,0.5,1
1, test,7, no_probe,9,3,4,4,3,0.6,0.7, right,2,0.3,0.4,0.6,0.7,0.2852734,1, , ,6,89,1,3,1,6,0.5,1
1, test,7, no_probe,10,2,1,1,2,0.4,0.3, right,2,0.3,0.4,0.6,0.7,0.7848565,0, , ,6,89,2,3,1,6,0.5,1
1, test,7, probe,11,2,4,2,4,0.4,0.7, left,1,0.3,0.4,0.6,0.7,1.0505144,0,64.9619751,1.1833526,6,89,3,3,1,6,0.5,1
1, test,7, no_probe,12,2,1,2,1,0.4,0.3, left,1,0.3,0.4,0.6,0.7,0.365549,0, , ,6,89,1,2,1,6,0.5,1
1, test,7, probe,13,1,4,4,1,0.3,0.7, right,2,0.3,0.4,0.6,0.7,0.3362046,0,72.10098267,1.4833337,6,89,2,2,1,6,0.5,1
1, test,7, no_probe,14,1,3,3,1,0.3,0.6, right,2,0.3,0.4,0.6,0.7,0.4358336,0, , ,6,89,1,2,1,6,0.5,1
1, test,7, probe,15,2,1,1,2,0.4,0.3, right,2,0.3,0.4,0.6,0.7,0.6037945,0,74.37466431,1.5499796,6,89,2,2,1,6,0.5,1
1, test,7, no_probe,16,3,1,1,3,0.6,0.3, right,2,0.3,0.4,0.6,0.7,0.605616,0, , ,6,89,1,3,1,6,0.5,1
1, test,7, no_probe,17,1,4,1,4,0.3,0.7, left,1,0.3,0.4,0.6,0.7,1.2780096,0, , ,6,89,2,3,1,6,0.5,1
1, test,7, probe,18,2,1,1,2,0.4,0.3, right,2,0.3,0.4,0.6,0.7,0.4005835,0,61.60494995,0.7499765,6,89,3,3,1,6,0.5,1
1, test,7, no_probe,19,3,1,3,1,0.6,0.3, left,1,0.3,0.4,0.6,0.7,0.510021,1, , ,7,90,1,2,1,6,0.5,1
1, test,7, probe,20,4,1,4,1,0.7,0.3, left,1,0.3,0.4,0.6,0.7,0.2953066,1,83.53900146,1.7166902,8,91,2,2,1,6,0.5,1
1, test,7, no_probe,21,4,1,4,1,0.7,0.3, left,1,0.3,0.4,0.6,0.7,0.3641603,1, , ,9,92,1,2,1,6,0.5,1
1, test,7, probe,22,3,4,4,3,0.6,0.7, right,2,0.3,0.4,0.6,0.7,0.2865755,0,91.97479248,2.0499769,9,92,2,2,1,6,0.5,1
1, test,7, no_probe,23,4,3,4,3,0.7,0.6, left,1,0.3,0.4,0.6,0.7,0.2643778,1, , ,10,93,1,2,1,6,0.5,1
1, test,7, probe,24,4,2,2,4,0.7,0.4, right,2,0.3,0.4,0.6,0.7,0.3029833,0,84.49737549,1.3666223,10,93,2,2,1,6,0.5,1
1, test,7, no_probe,25,1,3,1,3,0.3,0.6, left,1,0.3,0.4,0.6,0.7,0.5936738,0, , ,10,93,1,3,1,6,0.5,1
1, test,8, no_probe,1,4,3,3,4,0.7,0.6, right,2,0.3,0.4,0.6,0.7,0.2478083,1, , ,1,94,1,2,1,6,0.5,1
1, test,8, probe,2,4,1,1,4,0.7,0.3, right,2,0.3,0.4,0.6,0.7,0.2961658,1,96.01583862,1.4833029,2,95,2,2,1,6,0.5,1
1, test,8, no_probe,3,4,1,4,1,0.7,0.3, left,1,0.3,0.4,0.6,0.7,0.365272,0, , ,2,95,1,3,1,6,0.5,1
1, test,8, no_probe,4,4,1,4,1,0.7,0.3, left,1,0.3,0.4,0.6,0.7,0.3862344,1, , ,3,96,2,3,1,6,0.5,1
1, test,8, probe,5,4,3,4,3,0.7,0.6, left,1,0.3,0.4,0.6,0.7,0.2537613,1,83.41424561,0.9999805,4,97,3,3,1,6,0.5,1
1, test,8, no_probe,6,1,2,2,1,0.3,0.4, right,2,0.3,0.4,0.6,0.7,0.3037446,0, , ,4,97,1,3,1,6,0.5,1
1, test,8, no_probe,7,3,1,1,3,0.6,0.3, right,2,0.3,0.4,0.6,0.7,0.8163155,1, , ,5,98,2,3,1,6,0.5,1
1, test,8, probe,8,3,1,1,3,0.6,0.3, right,2,0.3,0.4,0.6,0.7,0.2652774,0,84.86129761,1.2166578,5,98,3,3,1,6,0.5,1
1, test,8, no_probe,9,2,4,4,2,0.4,0.7, right,2,0.3,0.4,0.6,0.7,0.5586687,1, , ,6,99,1,2,1,6,0.5,1
1, test,8, probe,10,2,1,1,2,0.4,0.3, right,2,0.3,0.4,0.6,0.7,0.4928862,1,84.20114136,1.4833074,7,100,2,2,1,6,0.5,1
1, test,8, no_probe,11,2,1,1,2,0.4,0.3, right,2,0.3,0.4,0.6,0.7,0.8986938,0, , ,7,100,1,3,1,6,0.5,1
1, test,8, no_probe,12,4,2,4,2,0.7,0.4, left,1,0.3,0.4,0.6,0.7,0.6561633,0, , ,7,100,2,3,1,6,0.5,1
1, test,8, probe,13,2,4,2,4,0.4,0.7, left,1,0.3,0.4,0.6,0.7,0.4153615,1,86.87286377,1.5166202,8,101,3,3,1,6,0.5,1
1, test,8, no_probe,14,4,3,4,3,0.7,0.6, left,1,0.3,0.4,0.6,0.7,0.8741242,1, , ,9,102,1,3,1,6,0.5,1
1, test,8, no_probe,15,4,1,4,1,0.7,0.3, left,1,0.3,0.4,0.6,0.7,0.4963015,0, , ,9,102,2,3,1,6,0.5,1
1, test,8, probe,16,4,1,4,1,0.7,0.3, left,1,0.3,0.4,0.6,0.7,0.5499867,1,85.69381714,1.4499701,10,103,3,3,1,6,0.5,1
1, test,8, no_probe,17,1,4,4,1,0.3,0.7, right,2,0.3,0.4,0.6,0.7,0.3580915,0, , ,10,103,1,3,1,6,0.5,1
1, test,8, no_probe,18,3,1,1,3,0.6,0.3, right,2,0.3,0.4,0.6,0.7,0.828807,1, , ,11,104,2,3,1,6,0.5,1
1, test,8, probe,19,2,1,1,2,0.4,0.3, right,2,0.3,0.4,0.6,0.7,0.5725813,0,57.62008667,1.9666771,11,104,3,3,1,6,0.5,1
1, test,8, no_probe,20,2,1,1,2,0.4,0.3, right,2,0.3,0.4,0.6,0.7,0.7921038,0, , ,11,104,1,2,1,6,0.5,1
1, test,8, probe,21,3,1,3,1,0.6,0.3, left,1,0.3,0.4,0.6,0.7,0.4748759,1,41.25045776,0.9333274,12,105,2,2,1,6,0.5,1
1, test,8, no_probe,22,2,1,1,2,0.4,0.3, right,2,0.3,0.4,0.6,0.7,0.5953341,1, , ,13,106,1,2,1,6,0.5,1
1, test,8, probe,23,2,3,2,3,0.4,0.6, left,1,0.3,0.4,0.6,0.7,0.2790613,1,53.2427063,1.0833228,14,107,2,2,1,6,0.5,1
1, test,8, no_probe,24,2,1,2,1,0.4,0.3, left,1,0.3,0.4,0.6,0.7,0.320801,1, , ,15,108,1,2,1,6,0.5,1
1, test,8, probe,25,2,4,2,4,0.4,0.7, left,1,0.3,0.4,0.6,0.7,0.4331882,1,58.33822632,0.8833108,16,109,2,2,1,6,0.5,1
