subject, block_type, block, thought probe, trial, chosen, unchosen, offer_left_image, offer_right_image, exp_value_chosen, exp_value_unchosen, choice_location, choice_key, exp_value1, exp_value2, exp_value3, exp_value4, RT, reward, vas, RT_vas, coins_per_block, coins_per_task, count_to_prob, ntrial_to_prob, ITI_duration,RT_deadline,choice_feedback_duration,outcome_duration
18, test, 1, no_probe, 1, 2, 1, 1, 2, 0.4, 0.3, right, 2, 0.3, 0.4, 0.6, 0.7, 1.2865108998958021, 0, , , 0.000000, 0.000000, 1.000000,2.000000,1.000000,6.000000,0.500000,1.000000
18, test, 1, probe, 2, 1, 2, 2, 1, 0.3, 0.4, right, 2, 0.3, 0.4, 0.6, 0.7, 1.5238333999877796, 0, 83.9791259765625, 4.466576400096528, 0.000000, 0.000000, 2.000000,2.000000,1.000000,6.000000,0.500000,1.000000
18, test, 1, no_probe, 3, 4, 1, 4, 1, 0.7, 0.3, left, 1, 0.3, 0.4, 0.6, 0.7, 2.5412190000060946, 1, , , 1.000000, 1.000000, 1.000000,2.000000,1.000000,6.000000,0.500000,1.000000
18, test, 1, probe, 4, 1, 2, 2, 1, 0.3, 0.4, right, 2, 0.3, 0.4, 0.6, 0.7, 1.933200400089845, 0, 74.32855224609375, 3.099959999904968, 1.000000, 1.000000, 2.000000,2.000000,1.000000,6.000000,0.500000,1.000000
18, test, 1, no_probe, 5, 2, 1, 1, 2, 0.4, 0.3, right, 2, 0.3, 0.4, 0.6, 0.7, 2.9667232999345288, 0, , , 1.000000, 1.000000, 1.000000,2.000000,1.000000,6.000000,0.500000,1.000000
18, test, 1, probe, 6, 4, 3, 4, 3, 0.7, 0.6, left, 1, 0.3, 0.4, 0.6, 0.7, 2.0537861000047997, 1, 91.7880859375, 4.116617199964821, 2.000000, 2.000000, 2.000000,2.000000,1.000000,6.000000,0.500000,1.000000
18, test, 1, no_probe, 1, 3, 2, 2, 3, 0.6, 0.4, right, 2, 0.3, 0.4, 0.6, 0.7, 1.4077881999546662, 1, , , 1.000000, 3.000000, 1.000000,3.000000,1.000000,6.000000,0.500000,1.000000
18, test, 1, no_probe, 2, 2, 1, 1, 2, 0.4, 0.3, right, 2, 0.3, 0.4, 0.6, 0.7, 2.8335903000552207, 1, , , 2.000000, 4.000000, 2.000000,3.000000,1.000000,6.000000,0.500000,1.000000
18, test, 1, probe, 3, 4, 1, 4, 1, 0.7, 0.3, left, 1, 0.3, 0.4, 0.6, 0.7, 1.5331000000005588, 0, 99.54782104492188, 3.816252199932933, 2.000000, 4.000000, 3.000000,3.000000,1.000000,6.000000,0.500000,1.000000
18, test, 1, no_probe, 4, 3, 2, 3, 2, 0.6, 0.4, left, 1, 0.3, 0.4, 0.6, 0.7, 1.5109605999896303, 0, , , 2.000000, 4.000000, 1.000000,3.000000,1.000000,6.000000,0.500000,1.000000
18, test, 1, no_probe, 5, 1, 4, 4, 1, 0.3, 0.7, right, 2, 0.3, 0.4, 0.6, 0.7, 1.4521909999893978, 1, , , 3.000000, 5.000000, 2.000000,3.000000,1.000000,6.000000,0.500000,1.000000
18, test, 1, probe, 6, 2, 4, 4, 2, 0.4, 0.7, right, 2, 0.3, 0.4, 0.6, 0.7, 1.3438465000363067, 0, 95.49365234375, 3.866622500005178, 3.000000, 5.000000, 3.000000,3.000000,1.000000,6.000000,0.500000,1.000000
18, test, 1, no_probe, 7, 2, 1, 2, 1, 0.4, 0.3, left, 1, 0.3, 0.4, 0.6, 0.7, 0.9959253000561148, 0, , , 3.000000, 5.000000, 1.000000,3.000000,1.000000,6.000000,0.500000,1.000000
18, test, 1, no_probe, 8, 1, 4, 1, 4, 0.3, 0.7, left, 1, 0.3, 0.4, 0.6, 0.7, 1.385190499946475, 1, , , 4.000000, 6.000000, 2.000000,3.000000,1.000000,6.000000,0.500000,1.000000
18, test, 1, probe, 9, 2, 3, 2, 3, 0.4, 0.6, left, 1, 0.3, 0.4, 0.6, 0.7, 1.478264500037767, 0, 94.85418701171875, 2.7333350999979302, 4.000000, 6.000000, 3.000000,3.000000,1.000000,6.000000,0.500000,1.000000
18, test, 1, no_probe, 10, 3, 2, 2, 3, 0.6, 0.4, right, 2, 0.3, 0.4, 0.6, 0.7, 2.0904538000468165, 0, , , 4.000000, 6.000000, 1.000000,2.000000,1.000000,6.000000,0.500000,1.000000
18, test, 1, probe, 11, 3, 1, 3, 1, 0.6, 0.3, left, 1, 0.3, 0.4, 0.6, 0.7, 1.5326736000133678, 0, 93.10366821289062, 2.6833580000093207, 4.000000, 6.000000, 2.000000,2.000000,1.000000,6.000000,0.500000,1.000000
18, test, 1, no_probe, 12, 2, 3, 3, 2, 0.4, 0.6, right, 2, 0.3, 0.4, 0.6, 0.7, 1.9339554999023676, 0, , , 4.000000, 6.000000, 1.000000,3.000000,1.000000,6.000000,0.500000,1.000000
18, test, 1, no_probe, 13, 2, 1, 2, 1, 0.4, 0.3, left, 1, 0.3, 0.4, 0.6, 0.7, 3.4995491000590846, 0, , , 4.000000, 6.000000, 2.000000,3.000000,1.000000,6.000000,0.500000,1.000000
18, test, 1, probe, 14, 2, 3, 3, 2, 0.4, 0.6, right, 2, 0.3, 0.4, 0.6, 0.7, 3.1526623000390828, 0, 68.2620849609375, 2.333291699993424, 4.000000, 6.000000, 3.000000,3.000000,1.000000,6.000000,0.500000,1.000000
18, test, 1, abort_trial, 15
18, test, 1, no_probe, 16, 1, 3, 3, 1, 0.3, 0.6, right, 2, 0.3, 0.4, 0.6, 0.7, 0.9308081000344828, 0, , , 4.000000, 6.000000, 1.000000,2.000000,1.000000,6.000000,0.500000,1.000000
18, test, 1, probe, 17, 4, 3, 4, 3, 0.7, 0.6, left, 1, 0.3, 0.4, 0.6, 0.7, 0.8669685999630019, 1, 80.44375610351562, 2.3166029000421986, 5.000000, 7.000000, 2.000000,2.000000,1.000000,6.000000,0.500000,1.000000
18, test, 1, no_probe, 18, 3, 1, 3, 1, 0.6, 0.3, left, 1, 0.3, 0.4, 0.6, 0.7, 0.5431634000269696, 0, , , 5.000000, 7.000000, 1.000000,2.000000,1.000000,6.000000,0.500000,1.000000
18, test, 1, probe, 19, 1, 2, 2, 1, 0.3, 0.4, right, 2, 0.3, 0.4, 0.6, 0.7, 0.9911307999864221, 0, 76.12271118164062, 1.6333447999786586, 5.000000, 7.000000, 2.000000,2.000000,1.000000,6.000000,0.500000,1.000000
18, test, 1, no_probe, 20, 2, 4, 2, 4, 0.4, 0.7, left, 1, 0.3, 0.4, 0.6, 0.7, 0.643641100032255, 1, , , 6.000000, 8.000000, 1.000000,3.000000,1.000000,6.000000,0.500000,1.000000
18, test, 1, no_probe, 21, 2, 4, 2, 4, 0.4, 0.7, left, 1, 0.3, 0.4, 0.6, 0.7, 0.6877288999967277, 1, , , 7.000000, 9.000000, 2.000000,3.000000,1.000000,6.000000,0.500000,1.000000
18, test, 1, probe, 22, 1, 3, 3, 1, 0.3, 0.6, right, 2, 0.3, 0.4, 0.6, 0.7, 0.8615862999577075, 0, 79.62765502929688, 1.699992600013502, 7.000000, 9.000000, 3.000000,3.000000,1.000000,6.000000,0.500000,1.000000
18, test, 1, no_probe, 23, 1, 4, 4, 1, 0.3, 0.7, right, 2, 0.3, 0.4, 0.6, 0.7, 0.8433103999122977, 0, , , 7.000000, 9.000000, 1.000000,3.000000,1.000000,6.000000,0.500000,1.000000
18, test, 1, no_probe, 24, 3, 1, 3, 1, 0.6, 0.3, left, 1, 0.3, 0.4, 0.6, 0.7, 0.6420520000392571, 1, , , 8.000000, 10.000000, 2.000000,3.000000,1.000000,6.000000,0.500000,1.000000
18, test, 1, probe, 25, 2, 1, 2, 1, 0.4, 0.3, left, 1, 0.3, 0.4, 0.6, 0.7, 1.110749899991788, 1, 90.3748779296875, 6.066572000039741, 9.000000, 11.000000, 3.000000,3.000000,1.000000,6.000000,0.500000,1.000000
18, test, 2, no_probe, 1, 2, 3, 3, 2, 0.4, 0.6, right, 2, 0.3, 0.4, 0.6, 0.7, 0.8147421000758186, 0, , , 0.000000, 11.000000, 1.000000,2.000000,1.000000,6.000000,0.500000,1.000000
18, test, 2, probe, 2, 4, 2, 4, 2, 0.7, 0.4, left, 1, 0.3, 0.4, 0.6, 0.7, 0.5182820999762043, 1, 91.65203857421875, 3.049979400006123, 1.000000, 12.000000, 2.000000,2.000000,1.000000,6.000000,0.500000,1.000000
18, test, 2, no_probe, 3, 1, 2, 1, 2, 0.3, 0.4, left, 1, 0.3, 0.4, 0.6, 0.7, 0.855494000017643, 1, , , 2.000000, 13.000000, 1.000000,3.000000,1.000000,6.000000,0.500000,1.000000
18, test, 2, no_probe, 4, 1, 4, 1, 4, 0.3, 0.7, left, 1, 0.3, 0.4, 0.6, 0.7, 0.5273044999921694, 1, , , 3.000000, 14.000000, 2.000000,3.000000,1.000000,6.000000,0.500000,1.000000
18, test, 2, probe, 5, 1, 2, 1, 2, 0.3, 0.4, left, 1, 0.3, 0.4, 0.6, 0.7, 0.5209994999459013, 1, 93.03701782226562, 3.316587100038305, 4.000000, 15.000000, 3.000000,3.000000,1.000000,6.000000,0.500000,1.000000
18, test, 2, no_probe, 6, 1, 4, 4, 1, 0.3, 0.7, right, 2, 0.3, 0.4, 0.6, 0.7, 0.6318220000248402, 0, , , 4.000000, 15.000000, 1.000000,3.000000,1.000000,6.000000,0.500000,1.000000
18, test, 2, no_probe, 7, 4, 2, 2, 4, 0.7, 0.4, right, 2, 0.3, 0.4, 0.6, 0.7, 0.9820075000170618, 0, , , 4.000000, 15.000000, 2.000000,3.000000,1.000000,6.000000,0.500000,1.000000
18, test, 2, probe, 8, 4, 1, 1, 4, 0.7, 0.3, right, 2, 0.3, 0.4, 0.6, 0.7, 1.0976905999705195, 0, 89.12103271484375, 3.6166570000350475, 4.000000, 15.000000, 3.000000,3.000000,1.000000,6.000000,0.500000,1.000000
18, test, 2, no_probe, 9, 3, 1, 3, 1, 0.6, 0.3, left, 1, 0.3, 0.4, 0.6, 0.7, 0.8849132999312133, 1, , , 5.000000, 16.000000, 1.000000,3.000000,1.000000,6.000000,0.500000,1.000000
18, test, 2, no_probe, 10, 2, 1, 1, 2, 0.4, 0.3, right, 2, 0.3, 0.4, 0.6, 0.7, 0.8823906000470743, 0, , , 5.000000, 16.000000, 2.000000,3.000000,1.000000,6.000000,0.500000,1.000000
18, test, 2, probe, 11, 3, 1, 3, 1, 0.6, 0.3, left, 1, 0.3, 0.4, 0.6, 0.7, 0.8615009000059217, 0, 85.65383911132812, 3.8665913000004366, 5.000000, 16.000000, 3.000000,3.000000,1.000000,6.000000,0.500000,1.000000
18, test, 2, no_probe, 12, 1, 3, 1, 3, 0.3, 0.6, left, 1, 0.3, 0.4, 0.6, 0.7, 0.7558874000096694, 1, , , 6.000000, 17.000000, 1.000000,3.000000,1.000000,6.000000,0.500000,1.000000
18, test, 2, no_probe, 13, 4, 3, 4, 3, 0.7, 0.6, left, 1, 0.3, 0.4, 0.6, 0.7, 0.9155824000481516, 1, , , 7.000000, 18.000000, 2.000000,3.000000,1.000000,6.000000,0.500000,1.000000
18, test, 2, probe, 14, 1, 4, 4, 1, 0.3, 0.7, right, 2, 0.3, 0.4, 0.6, 0.7, 0.6787887999089435, 0, 85.92953491210938, 4.61660710000433, 7.000000, 18.000000, 3.000000,3.000000,1.000000,6.000000,0.500000,1.000000
18, test, 2, no_probe, 15, 1, 3, 3, 1, 0.3, 0.6, right, 2, 0.3, 0.4, 0.6, 0.7, 0.6715781000675634, 0, , , 7.000000, 18.000000, 1.000000,2.000000,1.000000,6.000000,0.500000,1.000000
18, test, 2, probe, 16, 3, 4, 4, 3, 0.6, 0.7, right, 2, 0.3, 0.4, 0.6, 0.7, 0.6062005999265239, 0, 69.27432250976562, 3.116647000075318, 7.000000, 18.000000, 2.000000,2.000000,1.000000,6.000000,0.500000,1.000000
18, test, 2, no_probe, 17, 3, 2, 3, 2, 0.6, 0.4, left, 1, 0.3, 0.4, 0.6, 0.7, 0.5770749000366777, 1, , , 8.000000, 19.000000, 1.000000,3.000000,1.000000,6.000000,0.500000,1.000000
18, test, 2, no_probe, 18, 1, 4, 4, 1, 0.3, 0.7, right, 2, 0.3, 0.4, 0.6, 0.7, 1.0001776000717655, 0, , , 8.000000, 19.000000, 2.000000,3.000000,1.000000,6.000000,0.500000,1.000000
18, test, 2, probe, 19, 3, 4, 3, 4, 0.6, 0.7, left, 1, 0.3, 0.4, 0.6, 0.7, 0.7067228999221697, 1, 82.18417358398438, 3.033306800061837, 9.000000, 20.000000, 3.000000,3.000000,1.000000,6.000000,0.500000,1.000000
18, test, 2, no_probe, 20, 4, 2, 4, 2, 0.7, 0.4, left, 1, 0.3, 0.4, 0.6, 0.7, 0.6835384999867529, 0, , , 9.000000, 20.000000, 1.000000,2.000000,1.000000,6.000000,0.500000,1.000000
18, test, 2, probe, 21, 2, 4, 4, 2, 0.4, 0.7, right, 2, 0.3, 0.4, 0.6, 0.7, 0.6229831000091508, 0, 77.45245361328125, 4.233259700005874, 9.000000, 20.000000, 2.000000,2.000000,1.000000,6.000000,0.500000,1.000000
18, test, 2, no_probe, 22, 3, 4, 4, 3, 0.6, 0.7, right, 2, 0.3, 0.4, 0.6, 0.7, 0.5692639000480995, 1, , , 10.000000, 21.000000, 1.000000,3.000000,1.000000,6.000000,0.500000,1.000000
18, test, 2, no_probe, 23, 2, 4, 2, 4, 0.4, 0.7, left, 1, 0.3, 0.4, 0.6, 0.7, 0.9795604000100866, 1, , , 11.000000, 22.000000, 2.000000,3.000000,1.000000,6.000000,0.500000,1.000000
18, test, 2, probe, 24, 3, 2, 2, 3, 0.6, 0.4, right, 2, 0.3, 0.4, 0.6, 0.7, 0.9649412999860942, 0, 92.766845703125, 3.19996690005064, 11.000000, 22.000000, 3.000000,3.000000,1.000000,6.000000,0.500000,1.000000
18, test, 2, no_probe, 25, 2, 3, 3, 2, 0.4, 0.6, right, 2, 0.3, 0.4, 0.6, 0.7, 0.5867967000231147, 1, , , 12.000000, 23.000000, 1.000000,2.000000,1.000000,6.000000,0.500000,1.000000
18, test, 3, no_probe, 1, 2, 1, 1, 2, 0.4, 0.3, right, 2, 0.3, 0.4, 0.6, 0.7, 0.6049769999226555, 1, , , 1.000000, 24.000000, 1.000000,2.000000,1.000000,6.000000,0.500000,1.000000
18, test, 3, probe, 2, 3, 4, 4, 3, 0.6, 0.7, right, 2, 0.3, 0.4, 0.6, 0.7, 0.9708229000680149, 1, 91.54791259765625, 3.7499098000116646, 2.000000, 25.000000, 2.000000,2.000000,1.000000,6.000000,0.500000,1.000000
18, test, 3, no_probe, 3, 1, 4, 1, 4, 0.3, 0.7, left, 1, 0.3, 0.4, 0.6, 0.7, 0.6176405000733212, 0, , , 2.000000, 25.000000, 1.000000,3.000000,1.000000,6.000000,0.500000,1.000000
18, test, 3, no_probe, 4, 3, 1, 1, 3, 0.6, 0.3, right, 2, 0.3, 0.4, 0.6, 0.7, 0.7479489999823272, 1, , , 3.000000, 26.000000, 2.000000,3.000000,1.000000,6.000000,0.500000,1.000000
18, test, 3, probe, 5, 3, 4, 4, 3, 0.6, 0.7, right, 2, 0.3, 0.4, 0.6, 0.7, 0.8547909000189975, 1, 89.5506591796875, 2.8166474000317976, 4.000000, 27.000000, 3.000000,3.000000,1.000000,6.000000,0.500000,1.000000
18, test, 3, no_probe, 6, 3, 1, 1, 3, 0.6, 0.3, right, 2, 0.3, 0.4, 0.6, 0.7, 0.6475360000040382, 1, , , 5.000000, 28.000000, 1.000000,3.000000,1.000000,6.000000,0.500000,1.000000
18, test, 3, no_probe, 7, 1, 4, 4, 1, 0.3, 0.7, right, 2, 0.3, 0.4, 0.6, 0.7, 1.043670600047335, 0, , , 5.000000, 28.000000, 2.000000,3.000000,1.000000,6.000000,0.500000,1.000000
18, test, 3, probe, 8, 1, 4, 1, 4, 0.3, 0.7, left, 1, 0.3, 0.4, 0.6, 0.7, 1.130583000020124, 0, 89.07467651367188, 2.1333293999778107, 5.000000, 28.000000, 3.000000,3.000000,1.000000,6.000000,0.500000,1.000000
18, test, 3, no_probe, 9, 4, 2, 2, 4, 0.7, 0.4, right, 2, 0.3, 0.4, 0.6, 0.7, 0.4799745000200346, 1, , , 6.000000, 29.000000, 1.000000,3.000000,1.000000,6.000000,0.500000,1.000000
18, test, 3, no_probe, 10, 3, 1, 1, 3, 0.6, 0.3, right, 2, 0.3, 0.4, 0.6, 0.7, 0.9946695999242365, 1, , , 7.000000, 30.000000, 2.000000,3.000000,1.000000,6.000000,0.500000,1.000000
18, test, 3, probe, 11, 3, 1, 1, 3, 0.6, 0.3, right, 2, 0.3, 0.4, 0.6, 0.7, 0.8759449999779463, 0, 90.00985717773438, 1.9332821000134572, 7.000000, 30.000000, 3.000000,3.000000,1.000000,6.000000,0.500000,1.000000
18, test, 3, no_probe, 12, 2, 4, 2, 4, 0.4, 0.7, left, 1, 0.3, 0.4, 0.6, 0.7, 0.5648979999823496, 0, , , 7.000000, 30.000000, 1.000000,3.000000,1.000000,6.000000,0.500000,1.000000
18, test, 3, no_probe, 13, 3, 4, 3, 4, 0.6, 0.7, left, 1, 0.3, 0.4, 0.6, 0.7, 1.3027023000176996, 0, , , 7.000000, 30.000000, 2.000000,3.000000,1.000000,6.000000,0.500000,1.000000
18, test, 3, probe, 14, 1, 3, 1, 3, 0.3, 0.6, left, 1, 0.3, 0.4, 0.6, 0.7, 1.0195534999947995, 0, 83.90237426757812, 1.7666097999317572, 7.000000, 30.000000, 3.000000,3.000000,1.000000,6.000000,0.500000,1.000000
18, test, 3, no_probe, 15, 2, 3, 3, 2, 0.4, 0.6, right, 2, 0.3, 0.4, 0.6, 0.7, 0.43255829997360706, 0, , , 7.000000, 30.000000, 1.000000,2.000000,1.000000,6.000000,0.500000,1.000000
18, test, 3, probe, 16, 1, 2, 2, 1, 0.3, 0.4, right, 2, 0.3, 0.4, 0.6, 0.7, 0.9537990000098944, 0, 86.0120849609375, 2.2166010999353603, 7.000000, 30.000000, 2.000000,2.000000,1.000000,6.000000,0.500000,1.000000
18, test, 3, no_probe, 17, 3, 1, 1, 3, 0.6, 0.3, right, 2, 0.3, 0.4, 0.6, 0.7, 0.5871277999831364, 0, , , 7.000000, 30.000000, 1.000000,3.000000,1.000000,6.000000,0.500000,1.000000
18, test, 3, no_probe, 18, 2, 3, 2, 3, 0.4, 0.6, left, 1, 0.3, 0.4, 0.6, 0.7, 0.8357798000797629, 0, , , 7.000000, 30.000000, 2.000000,3.000000,1.000000,6.000000,0.500000,1.000000
18, test, 3, probe, 19, 2, 4, 2, 4, 0.4, 0.7, left, 1, 0.3, 0.4, 0.6, 0.7, 1.2361656000139192, 0, 89.93099975585938, 1.8832929000491276, 7.000000, 30.000000, 3.000000,3.000000,1.000000,6.000000,0.500000,1.000000
18, test, 3, no_probe, 20, 1, 2, 2, 1, 0.3, 0.4, right, 2, 0.3, 0.4, 0.6, 0.7, 0.8551020000595599, 0, , , 7.000000, 30.000000, 1.000000,3.000000,1.000000,6.000000,0.500000,1.000000
18, test, 3, no_probe, 21, 4, 3, 3, 4, 0.7, 0.6, right, 2, 0.3, 0.4, 0.6, 0.7, 1.5191043000668287, 1, , , 8.000000, 31.000000, 2.000000,3.000000,1.000000,6.000000,0.500000,1.000000
18, test, 3, probe, 22, 4, 1, 1, 4, 0.7, 0.3, right, 2, 0.3, 0.4, 0.6, 0.7, 1.023210300016217, 0, 60.212799072265625, 4.5332984999986365, 8.000000, 31.000000, 3.000000,3.000000,1.000000,6.000000,0.500000,1.000000
18, test, 3, no_probe, 23, 3, 1, 1, 3, 0.6, 0.3, right, 2, 0.3, 0.4, 0.6, 0.7, 0.7015287999529392, 0, , , 8.000000, 31.000000, 1.000000,3.000000,1.000000,6.000000,0.500000,1.000000
18, test, 3, no_probe, 24, 4, 3, 3, 4, 0.7, 0.6, right, 2, 0.3, 0.4, 0.6, 0.7, 0.7427162999520078, 1, , , 9.000000, 32.000000, 2.000000,3.000000,1.000000,6.000000,0.500000,1.000000
18, test, 3, probe, 25, 4, 1, 4, 1, 0.7, 0.3, left, 1, 0.3, 0.4, 0.6, 0.7, 0.7638311000773683, 0, 80.96533203125, 3.683251600014046, 9.000000, 32.000000, 3.000000,3.000000,1.000000,6.000000,0.500000,1.000000
18, test, 4, no_probe, 1, 1, 2, 2, 1, 0.3, 0.4, right, 2, 0.3, 0.4, 0.6, 0.7, 0.8732659999513999, 0, , , 0.000000, 32.000000, 1.000000,2.000000,1.000000,6.000000,0.500000,1.000000
18, test, 4, probe, 2, 4, 3, 4, 3, 0.7, 0.6, left, 1, 0.3, 0.4, 0.6, 0.7, 0.9849763000383973, 1, 76.66632080078125, 2.533329900004901, 1.000000, 33.000000, 2.000000,2.000000,1.000000,6.000000,0.500000,1.000000
18, test, 4, no_probe, 3, 3, 4, 3, 4, 0.6, 0.7, left, 1, 0.3, 0.4, 0.6, 0.7, 0.7647109000245109, 0, , , 1.000000, 33.000000, 1.000000,2.000000,1.000000,6.000000,0.500000,1.000000
18, test, 4, probe, 4, 1, 2, 2, 1, 0.3, 0.4, right, 2, 0.3, 0.4, 0.6, 0.7, 0.9458423999603838, 0, 82.11050415039062, 3.6166224000044167, 1.000000, 33.000000, 2.000000,2.000000,1.000000,6.000000,0.500000,1.000000
18, test, 4, no_probe, 5, 2, 3, 3, 2, 0.4, 0.6, right, 2, 0.3, 0.4, 0.6, 0.7, 0.6275643999688327, 1, , , 2.000000, 34.000000, 1.000000,3.000000,1.000000,6.000000,0.500000,1.000000
18, test, 4, no_probe, 6, 2, 1, 1, 2, 0.4, 0.3, right, 2, 0.3, 0.4, 0.6, 0.7, 0.5639086000155658, 1, , , 3.000000, 35.000000, 2.000000,3.000000,1.000000,6.000000,0.500000,1.000000
18, test, 4, probe, 7, 3, 4, 4, 3, 0.6, 0.7, right, 2, 0.3, 0.4, 0.6, 0.7, 1.2831867999630049, 1, 83.38418579101562, 3.099985499982722, 4.000000, 36.000000, 3.000000,3.000000,1.000000,6.000000,0.500000,1.000000
18, test, 4, no_probe, 8, 3, 4, 3, 4, 0.6, 0.7, left, 1, 0.3, 0.4, 0.6, 0.7, 0.6641667000949383, 0, , , 4.000000, 36.000000, 1.000000,2.000000,1.000000,6.000000,0.500000,1.000000
18, test, 4, probe, 9, 2, 4, 4, 2, 0.4, 0.7, right, 2, 0.3, 0.4, 0.6, 0.7, 1.6231719999341294, 0, 77.50711059570312, 1.5999919000314549, 4.000000, 36.000000, 2.000000,2.000000,1.000000,6.000000,0.500000,1.000000
18, test, 4, no_probe, 10, 1, 2, 1, 2, 0.3, 0.4, left, 1, 0.3, 0.4, 0.6, 0.7, 0.6902047999901697, 0, , , 4.000000, 36.000000, 1.000000,2.000000,1.000000,6.000000,0.500000,1.000000
18, test, 4, probe, 11, 2, 1, 1, 2, 0.4, 0.3, right, 2, 0.3, 0.4, 0.6, 0.7, 0.620293700019829, 0, 69.91558837890625, 3.9999376999912784, 4.000000, 36.000000, 2.000000,2.000000,1.000000,6.000000,0.500000,1.000000
18, test, 4, no_probe, 12, 1, 2, 2, 1, 0.3, 0.4, right, 2, 0.3, 0.4, 0.6, 0.7, 0.6603926001116633, 0, , , 4.000000, 36.000000, 1.000000,2.000000,1.000000,6.000000,0.500000,1.000000
18, test, 4, probe, 13, 2, 3, 3, 2, 0.4, 0.6, right, 2, 0.3, 0.4, 0.6, 0.7, 0.8424354000017047, 1, 66.81033325195312, 1.9832682999549434, 5.000000, 37.000000, 2.000000,2.000000,1.000000,6.000000,0.500000,1.000000
18, test, 4, no_probe, 14, 4, 3, 4, 3, 0.7, 0.6, left, 1, 0.3, 0.4, 0.6, 0.7, 0.6456929000560194, 1, , , 6.000000, 38.000000, 1.000000,3.000000,1.000000,6.000000,0.500000,1.000000
18, test, 4, no_probe, 15, 2, 3, 3, 2, 0.4, 0.6, right, 2, 0.3, 0.4, 0.6, 0.7, 0.6693569000344723, 0, , , 6.000000, 38.000000, 2.000000,3.000000,1.000000,6.000000,0.500000,1.000000
18, test, 4, probe, 16, 2, 3, 3, 2, 0.4, 0.6, right, 2, 0.3, 0.4, 0.6, 0.7, 0.6693172000814229, 0, 71.55023193359375, 1.3666520999977365, 6.000000, 38.000000, 3.000000,3.000000,1.000000,6.000000,0.500000,1.000000
18, test, 4, no_probe, 17, 1, 3, 1, 3, 0.3, 0.6, left, 1, 0.3, 0.4, 0.6, 0.7, 0.5758347000228241, 0, , , 6.000000, 38.000000, 1.000000,2.000000,1.000000,6.000000,0.500000,1.000000
18, test, 4, probe, 18, 4, 1, 1, 4, 0.7, 0.3, right, 2, 0.3, 0.4, 0.6, 0.7, 0.6262922999449074, 1, 76.329345703125, 2.9666502999607474, 7.000000, 39.000000, 2.000000,2.000000,1.000000,6.000000,0.500000,1.000000
18, test, 4, no_probe, 19, 3, 1, 1, 3, 0.6, 0.3, right, 2, 0.3, 0.4, 0.6, 0.7, 0.8145280000753701, 0, , , 7.000000, 39.000000, 1.000000,2.000000,1.000000,6.000000,0.500000,1.000000
18, test, 4, probe, 20, 4, 3, 4, 3, 0.7, 0.6, left, 1, 0.3, 0.4, 0.6, 0.7, 0.6239560999674723, 1, 78.3717041015625, 2.7999622999923304, 8.000000, 40.000000, 2.000000,2.000000,1.000000,6.000000,0.500000,1.000000
18, test, 4, no_probe, 21, 2, 4, 4, 2, 0.4, 0.7, right, 2, 0.3, 0.4, 0.6, 0.7, 0.77122120000422, 0, , , 8.000000, 40.000000, 1.000000,3.000000,1.000000,6.000000,0.500000,1.000000
18, test, 4, no_probe, 22, 1, 2, 1, 2, 0.3, 0.4, left, 1, 0.3, 0.4, 0.6, 0.7, 0.7861127000069246, 0, , , 8.000000, 40.000000, 2.000000,3.000000,1.000000,6.000000,0.500000,1.000000
18, test, 4, probe, 23, 4, 2, 2, 4, 0.7, 0.4, right, 2, 0.3, 0.4, 0.6, 0.7, 2.015572299947962, 0, 89.856689453125, 3.299927700078115, 8.000000, 40.000000, 3.000000,3.000000,1.000000,6.000000,0.500000,1.000000
18, test, 4, no_probe, 24, 2, 1, 2, 1, 0.4, 0.3, left, 1, 0.3, 0.4, 0.6, 0.7, 0.7237243000417948, 1, , , 9.000000, 41.000000, 1.000000,2.000000,1.000000,6.000000,0.500000,1.000000
18, test, 4, probe, 25, 2, 1, 1, 2, 0.4, 0.3, right, 2, 0.3, 0.4, 0.6, 0.7, 0.5560342000098899, 0, 81.40103149414062, 3.3166661000577733, 9.000000, 41.000000, 2.000000,2.000000,1.000000,6.000000,0.500000,1.000000
18, test, 5, no_probe, 1, 3, 1, 1, 3, 0.6, 0.3, right, 2, 0.3, 0.4, 0.6, 0.7, 1.4009079999523237, 0, , , 0.000000, 41.000000, 1.000000,3.000000,1.000000,6.000000,0.500000,1.000000
18, test, 5, no_probe, 2, 3, 1, 3, 1, 0.6, 0.3, left, 1, 0.3, 0.4, 0.6, 0.7, 0.7516065000090748, 0, , , 0.000000, 41.000000, 2.000000,3.000000,1.000000,6.000000,0.500000,1.000000
18, test, 5, probe, 3, 1, 2, 1, 2, 0.3, 0.4, left, 1, 0.3, 0.4, 0.6, 0.7, 1.161848200019449, 0, 49.99737548828125, 1.4329811000498012, 0.000000, 41.000000, 3.000000,3.000000,1.000000,6.000000,0.500000,1.000000
18, test, 5, no_probe, 4, 2, 1, 1, 2, 0.4, 0.3, right, 2, 0.3, 0.4, 0.6, 0.7, 0.46245670004282147, 1, , , 1.000000, 42.000000, 1.000000,3.000000,1.000000,6.000000,0.500000,1.000000
18, test, 5, no_probe, 5, 2, 4, 2, 4, 0.4, 0.7, left, 1, 0.3, 0.4, 0.6, 0.7, 0.7447216999717057, 1, , , 2.000000, 43.000000, 2.000000,3.000000,1.000000,6.000000,0.500000,1.000000
18, test, 5, probe, 6, 2, 3, 3, 2, 0.4, 0.6, right, 2, 0.3, 0.4, 0.6, 0.7, 0.7079821999650449, 0, 69.87698364257812, 2.3165802999865264, 2.000000, 43.000000, 3.000000,3.000000,1.000000,6.000000,0.500000,1.000000
18, test, 5, no_probe, 7, 2, 4, 2, 4, 0.4, 0.7, left, 1, 0.3, 0.4, 0.6, 0.7, 0.5192348000127822, 1, , , 3.000000, 44.000000, 1.000000,2.000000,1.000000,6.000000,0.500000,1.000000
18, test, 5, probe, 8, 3, 4, 4, 3, 0.6, 0.7, right, 2, 0.3, 0.4, 0.6, 0.7, 0.5720769999315962, 0, 70.419189453125, 2.4332751999609172, 3.000000, 44.000000, 2.000000,2.000000,1.000000,6.000000,0.500000,1.000000
18, test, 5, no_probe, 9, 1, 2, 1, 2, 0.3, 0.4, left, 1, 0.3, 0.4, 0.6, 0.7, 0.43254710000474006, 1, , , 4.000000, 45.000000, 1.000000,3.000000,1.000000,6.000000,0.500000,1.000000
18, test, 5, no_probe, 10, 1, 2, 2, 1, 0.3, 0.4, right, 2, 0.3, 0.4, 0.6, 0.7, 0.6202932000160217, 1, , , 5.000000, 46.000000, 2.000000,3.000000,1.000000,6.000000,0.500000,1.000000
18, test, 5, probe, 11, 1, 4, 1, 4, 0.3, 0.7, left, 1, 0.3, 0.4, 0.6, 0.7, 0.5725903999991715, 0, 68.61148071289062, 3.166642399970442, 5.000000, 46.000000, 3.000000,3.000000,1.000000,6.000000,0.500000,1.000000
18, test, 5, no_probe, 12, 3, 4, 4, 3, 0.6, 0.7, right, 2, 0.3, 0.4, 0.6, 0.7, 0.4971658999565989, 1, , , 6.000000, 47.000000, 1.000000,3.000000,1.000000,6.000000,0.500000,1.000000
18, test, 5, no_probe, 13, 2, 3, 3, 2, 0.4, 0.6, right, 2, 0.3, 0.4, 0.6, 0.7, 0.749334100051783, 0, , , 6.000000, 47.000000, 2.000000,3.000000,1.000000,6.000000,0.500000,1.000000
18, test, 5, probe, 14, 4, 3, 3, 4, 0.7, 0.6, right, 2, 0.3, 0.4, 0.6, 0.7, 1.1641837999923155, 0, 93.13143920898438, 3.683284900034778, 6.000000, 47.000000, 3.000000,3.000000,1.000000,6.000000,0.500000,1.000000
18, test, 5, no_probe, 15, 3, 4, 3, 4, 0.6, 0.7, left, 1, 0.3, 0.4, 0.6, 0.7, 0.5672593000344932, 1, , , 7.000000, 48.000000, 1.000000,2.000000,1.000000,6.000000,0.500000,1.000000
18, test, 5, probe, 16, 1, 2, 2, 1, 0.3, 0.4, right, 2, 0.3, 0.4, 0.6, 0.7, 1.3096320000477135, 0, 73.19598388671875, 2.066648400039412, 7.000000, 48.000000, 2.000000,2.000000,1.000000,6.000000,0.500000,1.000000
18, test, 5, no_probe, 17, 3, 2, 2, 3, 0.6, 0.4, right, 2, 0.3, 0.4, 0.6, 0.7, 0.4958549999864772, 0, , , 7.000000, 48.000000, 1.000000,3.000000,1.000000,6.000000,0.500000,1.000000
18, test, 5, no_probe, 18, 2, 1, 2, 1, 0.4, 0.3, left, 1, 0.3, 0.4, 0.6, 0.7, 0.7806732000317425, 0, , , 7.000000, 48.000000, 2.000000,3.000000,1.000000,6.000000,0.500000,1.000000
18, test, 5, probe, 19, 4, 3, 4, 3, 0.7, 0.6, left, 1, 0.3, 0.4, 0.6, 0.7, 1.195636500022374, 1, 69.53009033203125, 2.1499502999940887, 8.000000, 49.000000, 3.000000,3.000000,1.000000,6.000000,0.500000,1.000000
18, test, 5, no_probe, 20, 2, 1, 1, 2, 0.4, 0.3, right, 2, 0.3, 0.4, 0.6, 0.7, 0.667961600003764, 1, , , 9.000000, 50.000000, 1.000000,2.000000,1.000000,6.000000,0.500000,1.000000
18, test, 5, probe, 21, 3, 1, 1, 3, 0.6, 0.3, right, 2, 0.3, 0.4, 0.6, 0.7, 1.0240272000664845, 0, 75.49752807617188, 2.5166807000059634, 9.000000, 50.000000, 2.000000,2.000000,1.000000,6.000000,0.500000,1.000000
18, test, 5, no_probe, 22, 3, 1, 3, 1, 0.6, 0.3, left, 1, 0.3, 0.4, 0.6, 0.7, 0.7695143999299034, 0, , , 9.000000, 50.000000, 1.000000,3.000000,1.000000,6.000000,0.500000,1.000000
18, test, 5, no_probe, 23, 4, 1, 4, 1, 0.7, 0.3, left, 1, 0.3, 0.4, 0.6, 0.7, 0.9053986999206245, 1, , , 10.000000, 51.000000, 2.000000,3.000000,1.000000,6.000000,0.500000,1.000000
18, test, 5, probe, 24, 4, 3, 3, 4, 0.7, 0.6, right, 2, 0.3, 0.4, 0.6, 0.7, 0.7152523000258952, 1, 92.0390625, 2.4499214999377728, 11.000000, 52.000000, 3.000000,3.000000,1.000000,6.000000,0.500000,1.000000
18, test, 5, no_probe, 25, 2, 3, 3, 2, 0.4, 0.6, right, 2, 0.3, 0.4, 0.6, 0.7, 0.5755597000243142, 1, , , 12.000000, 53.000000, 1.000000,3.000000,1.000000,6.000000,0.500000,1.000000
18, test, 6, no_probe, 1, 1, 3, 3, 1, 0.3, 0.6, right, 2, 0.3, 0.4, 0.6, 0.7, 0.5302539999829605, 0, , , 0.000000, 53.000000, 1.000000,3.000000,1.000000,6.000000,0.500000,1.000000
18, test, 6, no_probe, 2, 3, 2, 3, 2, 0.6, 0.4, left, 1, 0.3, 0.4, 0.6, 0.7, 0.9258447999600321, 1, , , 1.000000, 54.000000, 2.000000,3.000000,1.000000,6.000000,0.500000,1.000000
18, test, 6, probe, 3, 3, 4, 3, 4, 0.6, 0.7, left, 1, 0.3, 0.4, 0.6, 0.7, 0.6907061000820249, 0, 83.99850463867188, 2.799616500036791, 1.000000, 54.000000, 3.000000,3.000000,1.000000,6.000000,0.500000,1.000000
18, test, 6, no_probe, 4, 3, 2, 2, 3, 0.6, 0.4, right, 2, 0.3, 0.4, 0.6, 0.7, 0.6559811999322847, 1, , , 2.000000, 55.000000, 1.000000,2.000000,1.000000,6.000000,0.500000,1.000000
18, test, 6, probe, 5, 1, 2, 1, 2, 0.3, 0.4, left, 1, 0.3, 0.4, 0.6, 0.7, 0.9818856000201777, 1, 90.221435546875, 3.2332875999854878, 3.000000, 56.000000, 2.000000,2.000000,1.000000,6.000000,0.500000,1.000000
18, test, 6, no_probe, 6, 3, 2, 2, 3, 0.6, 0.4, right, 2, 0.3, 0.4, 0.6, 0.7, 0.8897275000344962, 1, , , 4.000000, 57.000000, 1.000000,3.000000,1.000000,6.000000,0.500000,1.000000
18, test, 6, no_probe, 7, 3, 1, 1, 3, 0.6, 0.3, right, 2, 0.3, 0.4, 0.6, 0.7, 1.3885196999181062, 0, , , 4.000000, 57.000000, 2.000000,3.000000,1.000000,6.000000,0.500000,1.000000
18, test, 6, probe, 8, 2, 3, 3, 2, 0.4, 0.6, right, 2, 0.3, 0.4, 0.6, 0.7, 1.2453375000040978, 1, 96.71896362304688, 3.416668599937111, 5.000000, 58.000000, 3.000000,3.000000,1.000000,6.000000,0.500000,1.000000
18, test, 6, no_probe, 9, 1, 3, 3, 1, 0.3, 0.6, right, 2, 0.3, 0.4, 0.6, 0.7, 0.9308180999942124, 0, , , 5.000000, 58.000000, 1.000000,3.000000,1.000000,6.000000,0.500000,1.000000
18, test, 6, no_probe, 10, 2, 4, 2, 4, 0.4, 0.7, left, 1, 0.3, 0.4, 0.6, 0.7, 0.867019800003618, 0, , , 5.000000, 58.000000, 2.000000,3.000000,1.000000,6.000000,0.500000,1.000000
18, test, 6, probe, 11, 2, 4, 2, 4, 0.4, 0.7, left, 1, 0.3, 0.4, 0.6, 0.7, 0.7182714999653399, 0, 44.435333251953125, 2.933267700020224, 5.000000, 58.000000, 3.000000,3.000000,1.000000,6.000000,0.500000,1.000000
18, test, 6, no_probe, 12, 3, 2, 3, 2, 0.6, 0.4, left, 1, 0.3, 0.4, 0.6, 0.7, 0.5688838000642136, 1, , , 6.000000, 59.000000, 1.000000,3.000000,1.000000,6.000000,0.500000,1.000000
18, test, 6, no_probe, 13, 1, 2, 1, 2, 0.3, 0.4, left, 1, 0.3, 0.4, 0.6, 0.7, 0.9031306999968365, 0, , , 6.000000, 59.000000, 2.000000,3.000000,1.000000,6.000000,0.500000,1.000000
18, test, 6, probe, 14, 3, 1, 1, 3, 0.6, 0.3, right, 2, 0.3, 0.4, 0.6, 0.7, 0.6802563000237569, 1, 54.76043701171875, 1.3832677999744192, 7.000000, 60.000000, 3.000000,3.000000,1.000000,6.000000,0.500000,1.000000
18, test, 6, no_probe, 15, 2, 4, 4, 2, 0.4, 0.7, right, 2, 0.3, 0.4, 0.6, 0.7, 0.9428803999908268, 0, , , 7.000000, 60.000000, 1.000000,3.000000,1.000000,6.000000,0.500000,1.000000
18, test, 6, no_probe, 16, 4, 2, 2, 4, 0.7, 0.4, right, 2, 0.3, 0.4, 0.6, 0.7, 0.5694140999112278, 1, , , 8.000000, 61.000000, 2.000000,3.000000,1.000000,6.000000,0.500000,1.000000
18, test, 6, probe, 17, 3, 2, 2, 3, 0.6, 0.4, right, 2, 0.3, 0.4, 0.6, 0.7, 1.0367898000404239, 1, 77.75344848632812, 2.4999187000794336, 9.000000, 62.000000, 3.000000,3.000000,1.000000,6.000000,0.500000,1.000000
18, test, 6, no_probe, 18, 1, 3, 1, 3, 0.3, 0.6, left, 1, 0.3, 0.4, 0.6, 0.7, 0.6946284000296146, 0, , , 9.000000, 62.000000, 1.000000,2.000000,1.000000,6.000000,0.500000,1.000000
18, test, 6, probe, 19, 2, 1, 1, 2, 0.4, 0.3, right, 2, 0.3, 0.4, 0.6, 0.7, 1.6406015999382362, 1, 83.97897338867188, 2.499957300024107, 10.000000, 63.000000, 2.000000,2.000000,1.000000,6.000000,0.500000,1.000000
18, test, 6, no_probe, 20, 4, 2, 4, 2, 0.7, 0.4, left, 1, 0.3, 0.4, 0.6, 0.7, 1.0115088999737054, 1, , , 11.000000, 64.000000, 1.000000,2.000000,1.000000,6.000000,0.500000,1.000000
18, test, 6, probe, 21, 3, 1, 1, 3, 0.6, 0.3, right, 2, 0.3, 0.4, 0.6, 0.7, 0.9315483000827953, 1, 81.95217895507812, 2.0500490999547765, 12.000000, 65.000000, 2.000000,2.000000,1.000000,6.000000,0.500000,1.000000
18, test, 6, no_probe, 22, 3, 2, 3, 2, 0.6, 0.4, left, 1, 0.3, 0.4, 0.6, 0.7, 0.7480706000933424, 1, , , 13.000000, 66.000000, 1.000000,2.000000,1.000000,6.000000,0.500000,1.000000
18, test, 6, probe, 23, 3, 2, 2, 3, 0.6, 0.4, right, 2, 0.3, 0.4, 0.6, 0.7, 0.6923613999970257, 1, 96.13217163085938, 2.883234400069341, 14.000000, 67.000000, 2.000000,2.000000,1.000000,6.000000,0.500000,1.000000
18, test, 6, no_probe, 24, 4, 2, 4, 2, 0.7, 0.4, left, 1, 0.3, 0.4, 0.6, 0.7, 1.06129909993615, 1, , , 15.000000, 68.000000, 1.000000,2.000000,1.000000,6.000000,0.500000,1.000000
18, test, 6, probe, 25, 4, 2, 4, 2, 0.7, 0.4, left, 1, 0.3, 0.4, 0.6, 0.7, 0.711875700042583, 1, 95.95223999023438, 2.9500287999399006, 16.000000, 69.000000, 2.000000,2.000000,1.000000,6.000000,0.500000,1.000000
18, test, 7, no_probe, 1, 2, 4, 4, 2, 0.4, 0.7, right, 2, 0.3, 0.4, 0.6, 0.7, 0.9151459999848157, 0, , , 0.000000, 69.000000, 1.000000,3.000000,1.000000,6.000000,0.500000,1.000000
18, test, 7, no_probe, 2, 1, 2, 2, 1, 0.3, 0.4, right, 2, 0.3, 0.4, 0.6, 0.7, 1.1843827000120655, 0, , , 0.000000, 69.000000, 2.000000,3.000000,1.000000,6.000000,0.500000,1.000000
18, test, 7, probe, 3, 4, 1, 4, 1, 0.7, 0.3, left, 1, 0.3, 0.4, 0.6, 0.7, 0.9213264000136405, 1, 83.15261840820312, 2.599572200095281, 1.000000, 70.000000, 3.000000,3.000000,1.000000,6.000000,0.500000,1.000000
18, test, 7, no_probe, 4, 3, 4, 4, 3, 0.6, 0.7, right, 2, 0.3, 0.4, 0.6, 0.7, 1.7088333999272436, 1, , , 2.000000, 71.000000, 1.000000,2.000000,1.000000,6.000000,0.500000,1.000000
18, test, 7, probe, 5, 3, 2, 3, 2, 0.6, 0.4, left, 1, 0.3, 0.4, 0.6, 0.7, 0.782711899955757, 0, 79.09048461914062, 1.916637499933131, 2.000000, 71.000000, 2.000000,2.000000,1.000000,6.000000,0.500000,1.000000
18, test, 7, no_probe, 6, 1, 4, 4, 1, 0.3, 0.7, right, 2, 0.3, 0.4, 0.6, 0.7, 1.3540814999723807, 1, , , 3.000000, 72.000000, 1.000000,2.000000,1.000000,6.000000,0.500000,1.000000
18, test, 7, probe, 7, 2, 4, 4, 2, 0.4, 0.7, right, 2, 0.3, 0.4, 0.6, 0.7, 0.8903323999838904, 1, 84.8095703125, 1.8833619999932125, 4.000000, 73.000000, 2.000000,2.000000,1.000000,6.000000,0.500000,1.000000
18, test, 7, no_probe, 8, 1, 4, 4, 1, 0.3, 0.7, right, 2, 0.3, 0.4, 0.6, 0.7, 1.043054400011897, 0, , , 4.000000, 73.000000, 1.000000,3.000000,1.000000,6.000000,0.500000,1.000000
18, test, 7, no_probe, 9, 3, 1, 3, 1, 0.6, 0.3, left, 1, 0.3, 0.4, 0.6, 0.7, 0.7749875000445172, 1, , , 5.000000, 74.000000, 2.000000,3.000000,1.000000,6.000000,0.500000,1.000000
18, test, 7, probe, 10, 3, 4, 4, 3, 0.6, 0.7, right, 2, 0.3, 0.4, 0.6, 0.7, 0.8752441999968141, 1, 87.57553100585938, 2.0333023999119177, 6.000000, 75.000000, 3.000000,3.000000,1.000000,6.000000,0.500000,1.000000
18, test, 7, no_probe, 11, 2, 4, 2, 4, 0.4, 0.7, left, 1, 0.3, 0.4, 0.6, 0.7, 1.0549821000313386, 1, , , 7.000000, 76.000000, 1.000000,3.000000,1.000000,6.000000,0.500000,1.000000
18, test, 7, no_probe, 12, 2, 1, 2, 1, 0.4, 0.3, left, 1, 0.3, 0.4, 0.6, 0.7, 0.6810770999873057, 0, , , 7.000000, 76.000000, 2.000000,3.000000,1.000000,6.000000,0.500000,1.000000
18, test, 7, probe, 13, 3, 1, 3, 1, 0.6, 0.3, left, 1, 0.3, 0.4, 0.6, 0.7, 0.8686548999976367, 1, 92.86578369140625, 2.566645599901676, 8.000000, 77.000000, 3.000000,3.000000,1.000000,6.000000,0.500000,1.000000
18, test, 7, no_probe, 14, 2, 3, 2, 3, 0.4, 0.6, left, 1, 0.3, 0.4, 0.6, 0.7, 0.8462820999557152, 0, , , 8.000000, 77.000000, 1.000000,3.000000,1.000000,6.000000,0.500000,1.000000
18, test, 7, no_probe, 15, 4, 1, 4, 1, 0.7, 0.3, left, 1, 0.3, 0.4, 0.6, 0.7, 1.6934359000297263, 1, , , 9.000000, 78.000000, 2.000000,3.000000,1.000000,6.000000,0.500000,1.000000
18, test, 7, probe, 16, 3, 1, 3, 1, 0.6, 0.3, left, 1, 0.3, 0.4, 0.6, 0.7, 1.096197500010021, 0, 91.72393798828125, 2.416618900024332, 9.000000, 78.000000, 3.000000,3.000000,1.000000,6.000000,0.500000,1.000000
18, test, 7, no_probe, 17, 2, 3, 3, 2, 0.4, 0.6, right, 2, 0.3, 0.4, 0.6, 0.7, 0.656124799977988, 0, , , 9.000000, 78.000000, 1.000000,3.000000,1.000000,6.000000,0.500000,1.000000
18, test, 7, no_probe, 18, 1, 2, 2, 1, 0.3, 0.4, right, 2, 0.3, 0.4, 0.6, 0.7, 0.9659553000237793, 1, , , 10.000000, 79.000000, 2.000000,3.000000,1.000000,6.000000,0.500000,1.000000
18, test, 7, probe, 19, 3, 2, 2, 3, 0.6, 0.4, right, 2, 0.3, 0.4, 0.6, 0.7, 1.1811793999513611, 1, 92.00048828125, 2.116682599997148, 11.000000, 80.000000, 3.000000,3.000000,1.000000,6.000000,0.500000,1.000000
18, test, 7, no_probe, 20, 3, 2, 2, 3, 0.6, 0.4, right, 2, 0.3, 0.4, 0.6, 0.7, 1.4778359000338241, 1, , , 12.000000, 81.000000, 1.000000,3.000000,1.000000,6.000000,0.500000,1.000000
18, test, 7, no_probe, 21, 3, 4, 4, 3, 0.6, 0.7, right, 2, 0.3, 0.4, 0.6, 0.7, 0.7922405999852344, 1, , , 13.000000, 82.000000, 2.000000,3.000000,1.000000,6.000000,0.500000,1.000000
18, test, 7, probe, 22, 2, 4, 2, 4, 0.4, 0.7, left, 1, 0.3, 0.4, 0.6, 0.7, 2.182176799979061, 1, 94.38314819335938, 2.1332875000080094, 14.000000, 83.000000, 3.000000,3.000000,1.000000,6.000000,0.500000,1.000000
18, test, 7, no_probe, 23, 2, 4, 4, 2, 0.4, 0.7, right, 2, 0.3, 0.4, 0.6, 0.7, 1.049308200017549, 0, , , 14.000000, 83.000000, 1.000000,2.000000,1.000000,6.000000,0.500000,1.000000
18, test, 7, probe, 24, 3, 1, 3, 1, 0.6, 0.3, left, 1, 0.3, 0.4, 0.6, 0.7, 1.2403925000689924, 1, 90.97698974609375, 2.1999593999935314, 15.000000, 84.000000, 2.000000,2.000000,1.000000,6.000000,0.500000,1.000000
18, test, 7, no_probe, 25, 3, 1, 1, 3, 0.6, 0.3, right, 2, 0.3, 0.4, 0.6, 0.7, 0.6157345999963582, 1, , , 16.000000, 85.000000, 1.000000,3.000000,1.000000,6.000000,0.500000,1.000000
18, test, 8, no_probe, 1, 2, 1, 1, 2, 0.4, 0.3, right, 2, 0.3, 0.4, 0.6, 0.7, 0.7830282999202609, 1, , , 1.000000, 86.000000, 1.000000,2.000000,1.000000,6.000000,0.500000,1.000000
18, test, 8, probe, 2, 4, 1, 1, 4, 0.7, 0.3, right, 2, 0.3, 0.4, 0.6, 0.7, 0.8175690000643954, 0, 89.84793090820312, 2.2666487999958917, 1.000000, 86.000000, 2.000000,2.000000,1.000000,6.000000,0.500000,1.000000
18, test, 8, no_probe, 3, 3, 2, 3, 2, 0.6, 0.4, left, 1, 0.3, 0.4, 0.6, 0.7, 1.3576130999717861, 0, , , 1.000000, 86.000000, 1.000000,2.000000,1.000000,6.000000,0.500000,1.000000
18, test, 8, probe, 4, 2, 1, 2, 1, 0.4, 0.3, left, 1, 0.3, 0.4, 0.6, 0.7, 0.9420232999837026, 1, 72.14605712890625, 1.5332919000647962, 2.000000, 87.000000, 2.000000,2.000000,1.000000,6.000000,0.500000,1.000000
18, test, 8, no_probe, 5, 4, 1, 4, 1, 0.7, 0.3, left, 1, 0.3, 0.4, 0.6, 0.7, 0.8181218000827357, 1, , , 3.000000, 88.000000, 1.000000,2.000000,1.000000,6.000000,0.500000,1.000000
18, test, 8, probe, 6, 2, 1, 1, 2, 0.4, 0.3, right, 2, 0.3, 0.4, 0.6, 0.7, 1.0115750000113621, 0, 80.54638671875, 3.6499622999690473, 3.000000, 88.000000, 2.000000,2.000000,1.000000,6.000000,0.500000,1.000000
18, test, 8, no_probe, 7, 4, 2, 4, 2, 0.7, 0.4, left, 1, 0.3, 0.4, 0.6, 0.7, 0.6248965000268072, 1, , , 4.000000, 89.000000, 1.000000,2.000000,1.000000,6.000000,0.500000,1.000000
18, test, 8, probe, 8, 2, 3, 3, 2, 0.4, 0.6, right, 2, 0.3, 0.4, 0.6, 0.7, 0.5734415000770241, 0, 80.86740112304688, 1.8333418999100104, 4.000000, 89.000000, 2.000000,2.000000,1.000000,6.000000,0.500000,1.000000
18, test, 8, no_probe, 9, 4, 1, 4, 1, 0.7, 0.3, left, 1, 0.3, 0.4, 0.6, 0.7, 0.5302626000484452, 0, , , 4.000000, 89.000000, 1.000000,3.000000,1.000000,6.000000,0.500000,1.000000
18, test, 8, no_probe, 10, 2, 3, 3, 2, 0.4, 0.6, right, 2, 0.3, 0.4, 0.6, 0.7, 0.5137090999633074, 0, , , 4.000000, 89.000000, 2.000000,3.000000,1.000000,6.000000,0.500000,1.000000
18, test, 8, probe, 11, 4, 2, 4, 2, 0.7, 0.4, left, 1, 0.3, 0.4, 0.6, 0.7, 0.9511206999886781, 1, 45.2509765625, 3.0499614999862388, 5.000000, 90.000000, 3.000000,3.000000,1.000000,6.000000,0.500000,1.000000
18, test, 8, no_probe, 12, 4, 3, 3, 4, 0.7, 0.6, right, 2, 0.3, 0.4, 0.6, 0.7, 0.6179184999782592, 0, , , 5.000000, 90.000000, 1.000000,3.000000,1.000000,6.000000,0.500000,1.000000
18, test, 8, no_probe, 13, 4, 2, 2, 4, 0.7, 0.4, right, 2, 0.3, 0.4, 0.6, 0.7, 0.9559884000336751, 0, , , 5.000000, 90.000000, 2.000000,3.000000,1.000000,6.000000,0.500000,1.000000
18, test, 8, probe, 14, 2, 1, 2, 1, 0.4, 0.3, left, 1, 0.3, 0.4, 0.6, 0.7, 0.9516887000063434, 1, 62.740386962890625, 1.216642600018531, 6.000000, 91.000000, 3.000000,3.000000,1.000000,6.000000,0.500000,1.000000
18, test, 8, no_probe, 15, 3, 1, 3, 1, 0.6, 0.3, left, 1, 0.3, 0.4, 0.6, 0.7, 0.823413799982518, 1, , , 7.000000, 92.000000, 1.000000,2.000000,1.000000,6.000000,0.500000,1.000000
18, test, 8, probe, 16, 2, 1, 1, 2, 0.4, 0.3, right, 2, 0.3, 0.4, 0.6, 0.7, 0.9122416999889538, 0, 65.00152587890625, 1.3666116000385955, 7.000000, 92.000000, 2.000000,2.000000,1.000000,6.000000,0.500000,1.000000
18, test, 8, no_probe, 17, 4, 2, 4, 2, 0.7, 0.4, left, 1, 0.3, 0.4, 0.6, 0.7, 0.6504635999444872, 1, , , 8.000000, 93.000000, 1.000000,2.000000,1.000000,6.000000,0.500000,1.000000
18, test, 8, probe, 18, 4, 1, 1, 4, 0.7, 0.3, right, 2, 0.3, 0.4, 0.6, 0.7, 0.6970838999841362, 0, 63.376739501953125, 1.3666498999809846, 8.000000, 93.000000, 2.000000,2.000000,1.000000,6.000000,0.500000,1.000000
18, test, 8, no_probe, 19, 4, 2, 2, 4, 0.7, 0.4, right, 2, 0.3, 0.4, 0.6, 0.7, 0.9024059999501333, 0, , , 8.000000, 93.000000, 1.000000,3.000000,1.000000,6.000000,0.500000,1.000000
18, test, 8, no_probe, 20, 2, 3, 3, 2, 0.4, 0.6, right, 2, 0.3, 0.4, 0.6, 0.7, 1.2599667001049966, 0, , , 8.000000, 93.000000, 2.000000,3.000000,1.000000,6.000000,0.500000,1.000000
18, test, 8, probe, 21, 1, 3, 1, 3, 0.3, 0.6, left, 1, 0.3, 0.4, 0.6, 0.7, 0.7260470999171957, 1, 74.3719482421875, 2.149987500044517, 9.000000, 94.000000, 3.000000,3.000000,1.000000,6.000000,0.500000,1.000000
18, test, 8, no_probe, 22, 4, 2, 2, 4, 0.7, 0.4, right, 2, 0.3, 0.4, 0.6, 0.7, 1.8478171000024304, 0, , , 9.000000, 94.000000, 1.000000,3.000000,1.000000,6.000000,0.500000,1.000000
18, test, 8, no_probe, 23, 1, 4, 4, 1, 0.3, 0.7, right, 2, 0.3, 0.4, 0.6, 0.7, 1.0033661000197753, 0, , , 9.000000, 94.000000, 2.000000,3.000000,1.000000,6.000000,0.500000,1.000000
18, test, 8, probe, 24, 1, 2, 1, 2, 0.3, 0.4, left, 1, 0.3, 0.4, 0.6, 0.7, 1.257240999955684, 0, 43.939544677734375, 1.799985499936156, 9.000000, 94.000000, 3.000000,3.000000,1.000000,6.000000,0.500000,1.000000
18, test, 8, no_probe, 25, 4, 2, 4, 2, 0.7, 0.4, left, 1, 0.3, 0.4, 0.6, 0.7, 0.9916915000649169, 0, , , 9.000000, 94.000000, 1.000000,2.000000,1.000000,6.000000,0.500000,1.000000
