subject, block_type, block, thought probe, trial, chosen, unchosen, offer_left_image, offer_right_image, exp_value_chosen, exp_value_unchosen, choice_location, choice_key, exp_value1, exp_value2, exp_value3, exp_value4, RT, reward, vas, RT_vas, coins_per_block, coins_per_task, count_to_prob, ntrial_to_prob, ITI_duration,RT_deadline,choice_feedback_duration,outcome_duration
51, test, 1, no_probe, 1, 3, 1, 3, 1, 0.6, 0.3, left, 1, 0.3, 0.4, 0.6, 0.7, 0.7990091999527067, 0, , , 0.000000, 0.000000, 1.000000,3.000000,1.000000,6.000000,0.500000,1.000000
51, test, 1, no_probe, 2, 3, 2, 2, 3, 0.6, 0.4, right, 2, 0.3, 0.4, 0.6, 0.7, 0.2840441002044827, 1, , , 1.000000, 1.000000, 2.000000,3.000000,1.000000,6.000000,0.500000,1.000000
51, test, 1, probe, 3, 2, 4, 2, 4, 0.4, 0.7, left, 1, 0.3, 0.4, 0.6, 0.7, 0.631590300006792, 0, 98.3955078125, 8.782942699966952, 1.000000, 1.000000, 3.000000,3.000000,1.000000,6.000000,0.500000,1.000000
51, test, 1, no_probe, 4, 3, 2, 3, 2, 0.6, 0.4, left, 1, 0.3, 0.4, 0.6, 0.7, 2.241908200085163, 1, , , 2.000000, 2.000000, 1.000000,3.000000,1.000000,6.000000,0.500000,1.000000
51, test, 1, no_probe, 5, 3, 1, 3, 1, 0.6, 0.3, left, 1, 0.3, 0.4, 0.6, 0.7, 0.3707722001709044, 1, , , 3.000000, 3.000000, 2.000000,3.000000,1.000000,6.000000,0.500000,1.000000
51, test, 1, probe, 6, 4, 3, 4, 3, 0.7, 0.6, left, 1, 0.3, 0.4, 0.6, 0.7, 0.6240548000205308, 0, 99.9989013671875, 8.449939100071788, 3.000000, 3.000000, 3.000000,3.000000,1.000000,6.000000,0.500000,1.000000
51, test, 1, no_probe, 1, 2, 4, 4, 2, 0.4, 0.7, right, 2, 0.3, 0.4, 0.6, 0.7, 0.8910087000112981, 1, , , 1.000000, 4.000000, 1.000000,2.000000,1.000000,6.000000,0.500000,1.000000
51, test, 1, probe, 2, 2, 4, 2, 4, 0.4, 0.7, left, 1, 0.3, 0.4, 0.6, 0.7, 0.43285360001027584, 0, 28.661834716796875, 2.916632799897343, 1.000000, 4.000000, 2.000000,2.000000,1.000000,6.000000,0.500000,1.000000
51, test, 1, no_probe, 3, 3, 1, 1, 3, 0.6, 0.3, right, 2, 0.3, 0.4, 0.6, 0.7, 1.022657899884507, 0, , , 1.000000, 4.000000, 1.000000,3.000000,1.000000,6.000000,0.500000,1.000000
51, test, 1, no_probe, 4, 2, 1, 2, 1, 0.4, 0.3, left, 1, 0.3, 0.4, 0.6, 0.7, 1.119751200079918, 1, , , 2.000000, 5.000000, 2.000000,3.000000,1.000000,6.000000,0.500000,1.000000
51, test, 1, probe, 5, 4, 1, 1, 4, 0.7, 0.3, right, 2, 0.3, 0.4, 0.6, 0.7, 0.968412899877876, 0, 65.35568237304688, 2.333293000003323, 2.000000, 5.000000, 3.000000,3.000000,1.000000,6.000000,0.500000,1.000000
51, test, 1, no_probe, 6, 1, 4, 1, 4, 0.3, 0.7, left, 1, 0.3, 0.4, 0.6, 0.7, 1.0849117999896407, 1, , , 3.000000, 6.000000, 1.000000,2.000000,1.000000,6.000000,0.500000,1.000000
51, test, 1, probe, 7, 2, 4, 2, 4, 0.4, 0.7, left, 1, 0.3, 0.4, 0.6, 0.7, 0.8746036000084132, 1, 76.27047729492188, 2.283302400028333, 4.000000, 7.000000, 2.000000,2.000000,1.000000,6.000000,0.500000,1.000000
51, test, 1, no_probe, 8, 4, 1, 1, 4, 0.7, 0.3, right, 2, 0.3, 0.4, 0.6, 0.7, 0.6288632999639958, 1, , , 5.000000, 8.000000, 1.000000,3.000000,1.000000,6.000000,0.500000,1.000000
51, test, 1, no_probe, 9, 1, 3, 1, 3, 0.3, 0.6, left, 1, 0.3, 0.4, 0.6, 0.7, 0.7528238000813872, 1, , , 6.000000, 9.000000, 2.000000,3.000000,1.000000,6.000000,0.500000,1.000000
51, test, 1, probe, 10, 4, 3, 3, 4, 0.7, 0.6, right, 2, 0.3, 0.4, 0.6, 0.7, 0.6567589000333101, 1, 82.85348510742188, 2.1999093999620527, 7.000000, 10.000000, 3.000000,3.000000,1.000000,6.000000,0.500000,1.000000
51, test, 1, no_probe, 11, 2, 1, 2, 1, 0.4, 0.3, left, 1, 0.3, 0.4, 0.6, 0.7, 0.570287800161168, 0, , , 7.000000, 10.000000, 1.000000,2.000000,1.000000,6.000000,0.500000,1.000000
51, test, 1, probe, 12, 1, 3, 1, 3, 0.3, 0.6, left, 1, 0.3, 0.4, 0.6, 0.7, 0.592337500071153, 0, 35.884033203125, 2.299967500148341, 7.000000, 10.000000, 2.000000,2.000000,1.000000,6.000000,0.500000,1.000000
51, test, 1, no_probe, 13, 1, 2, 2, 1, 0.3, 0.4, right, 2, 0.3, 0.4, 0.6, 0.7, 1.8290105001069605, 0, , , 7.000000, 10.000000, 1.000000,2.000000,1.000000,6.000000,0.500000,1.000000
51, test, 1, probe, 14, 2, 1, 1, 2, 0.4, 0.3, right, 2, 0.3, 0.4, 0.6, 0.7, 1.2933350999373943, 0, 31.853912353515625, 2.0666583001147956, 7.000000, 10.000000, 2.000000,2.000000,1.000000,6.000000,0.500000,1.000000
51, test, 1, no_probe, 15, 2, 3, 3, 2, 0.4, 0.6, right, 2, 0.3, 0.4, 0.6, 0.7, 0.8086568000726402, 1, , , 8.000000, 11.000000, 1.000000,2.000000,1.000000,6.000000,0.500000,1.000000
51, test, 1, probe, 16, 2, 4, 4, 2, 0.4, 0.7, right, 2, 0.3, 0.4, 0.6, 0.7, 0.6532056999858469, 0, 35.737274169921875, 1.6166326999664307, 8.000000, 11.000000, 2.000000,2.000000,1.000000,6.000000,0.500000,1.000000
51, test, 1, no_probe, 17, 1, 2, 2, 1, 0.3, 0.4, right, 2, 0.3, 0.4, 0.6, 0.7, 1.1750382999889553, 0, , , 8.000000, 11.000000, 1.000000,2.000000,1.000000,6.000000,0.500000,1.000000
51, test, 1, probe, 18, 4, 3, 3, 4, 0.7, 0.6, right, 2, 0.3, 0.4, 0.6, 0.7, 1.5012338999658823, 0, 34.4041748046875, 1.8333242000080645, 8.000000, 11.000000, 2.000000,2.000000,1.000000,6.000000,0.500000,1.000000
51, test, 1, no_probe, 19, 3, 4, 4, 3, 0.6, 0.7, right, 2, 0.3, 0.4, 0.6, 0.7, 0.6792164999060333, 1, , , 9.000000, 12.000000, 1.000000,2.000000,1.000000,6.000000,0.500000,1.000000
51, test, 1, probe, 20, 3, 1, 1, 3, 0.6, 0.3, right, 2, 0.3, 0.4, 0.6, 0.7, 0.5228315000422299, 0, 60.7745361328125, 2.4333083999808878, 9.000000, 12.000000, 2.000000,2.000000,1.000000,6.000000,0.500000,1.000000
51, test, 1, no_probe, 21, 1, 3, 1, 3, 0.3, 0.6, left, 1, 0.3, 0.4, 0.6, 0.7, 1.416165400063619, 1, , , 10.000000, 13.000000, 1.000000,2.000000,1.000000,6.000000,0.500000,1.000000
51, test, 1, probe, 22, 2, 3, 2, 3, 0.4, 0.6, left, 1, 0.3, 0.4, 0.6, 0.7, 1.9177636001259089, 0, 52.67828369140625, 2.1499532000161707, 10.000000, 13.000000, 2.000000,2.000000,1.000000,6.000000,0.500000,1.000000
51, test, 1, no_probe, 23, 4, 3, 3, 4, 0.7, 0.6, right, 2, 0.3, 0.4, 0.6, 0.7, 0.6671823000069708, 1, , , 11.000000, 14.000000, 1.000000,2.000000,1.000000,6.000000,0.500000,1.000000
51, test, 1, probe, 24, 2, 3, 2, 3, 0.4, 0.6, left, 1, 0.3, 0.4, 0.6, 0.7, 0.848172599915415, 0, 49.997222900390625, 1.5166594998445362, 11.000000, 14.000000, 2.000000,2.000000,1.000000,6.000000,0.500000,1.000000
51, test, 1, no_probe, 25, 4, 3, 4, 3, 0.7, 0.6, left, 1, 0.3, 0.4, 0.6, 0.7, 1.1621445999480784, 0, , , 11.000000, 14.000000, 1.000000,2.000000,1.000000,6.000000,0.500000,1.000000
51, test, 2, no_probe, 1, 3, 4, 4, 3, 0.6, 0.7, right, 2, 0.3, 0.4, 0.6, 0.7, 0.8738241998944432, 0, , , 0.000000, 14.000000, 1.000000,2.000000,1.000000,6.000000,0.500000,1.000000
51, test, 2, probe, 2, 1, 4, 1, 4, 0.3, 0.7, left, 1, 0.3, 0.4, 0.6, 0.7, 1.6237241001799703, 0, 69.81588745117188, 2.4999480999540538, 0.000000, 14.000000, 2.000000,2.000000,1.000000,6.000000,0.500000,1.000000
51, test, 2, no_probe, 3, 4, 2, 4, 2, 0.7, 0.4, left, 1, 0.3, 0.4, 0.6, 0.7, 1.1952021999750286, 1, , , 1.000000, 15.000000, 1.000000,3.000000,1.000000,6.000000,0.500000,1.000000
51, test, 2, no_probe, 4, 4, 1, 4, 1, 0.7, 0.3, left, 1, 0.3, 0.4, 0.6, 0.7, 1.092089399928227, 0, , , 1.000000, 15.000000, 2.000000,3.000000,1.000000,6.000000,0.500000,1.000000
51, test, 2, probe, 5, 2, 1, 1, 2, 0.4, 0.3, right, 2, 0.3, 0.4, 0.6, 0.7, 1.8820154999848455, 0, 36.317169189453125, 1.9332928000949323, 1.000000, 15.000000, 3.000000,3.000000,1.000000,6.000000,0.500000,1.000000
51, test, 2, no_probe, 6, 2, 3, 2, 3, 0.4, 0.6, left, 1, 0.3, 0.4, 0.6, 0.7, 0.7971258000470698, 1, , , 2.000000, 16.000000, 1.000000,3.000000,1.000000,6.000000,0.500000,1.000000
51, test, 2, no_probe, 7, 1, 3, 3, 1, 0.3, 0.6, right, 2, 0.3, 0.4, 0.6, 0.7, 0.7845158998388797, 0, , , 2.000000, 16.000000, 2.000000,3.000000,1.000000,6.000000,0.500000,1.000000
51, test, 2, probe, 8, 4, 3, 4, 3, 0.7, 0.6, left, 1, 0.3, 0.4, 0.6, 0.7, 0.8178402001503855, 0, 60.672698974609375, 3.1999639999121428, 2.000000, 16.000000, 3.000000,3.000000,1.000000,6.000000,0.500000,1.000000
51, test, 2, no_probe, 9, 2, 3, 2, 3, 0.4, 0.6, left, 1, 0.3, 0.4, 0.6, 0.7, 0.4366468999069184, 0, , , 2.000000, 16.000000, 1.000000,2.000000,1.000000,6.000000,0.500000,1.000000
51, test, 2, probe, 10, 2, 4, 4, 2, 0.4, 0.7, right, 2, 0.3, 0.4, 0.6, 0.7, 1.7613333000335842, 1, 62.17596435546875, 1.9999663999769837, 3.000000, 17.000000, 2.000000,2.000000,1.000000,6.000000,0.500000,1.000000
51, test, 2, no_probe, 11, 4, 2, 4, 2, 0.7, 0.4, left, 1, 0.3, 0.4, 0.6, 0.7, 1.3860031999647617, 1, , , 4.000000, 18.000000, 1.000000,2.000000,1.000000,6.000000,0.500000,1.000000
51, test, 2, probe, 12, 3, 4, 4, 3, 0.6, 0.7, right, 2, 0.3, 0.4, 0.6, 0.7, 0.9809189999941736, 0, 62.534088134765625, 3.499949499964714, 4.000000, 18.000000, 2.000000,2.000000,1.000000,6.000000,0.500000,1.000000
51, test, 2, no_probe, 13, 4, 3, 3, 4, 0.7, 0.6, right, 2, 0.3, 0.4, 0.6, 0.7, 1.6055575998034328, 0, , , 4.000000, 18.000000, 1.000000,3.000000,1.000000,6.000000,0.500000,1.000000
51, test, 2, no_probe, 14, 4, 2, 4, 2, 0.7, 0.4, left, 1, 0.3, 0.4, 0.6, 0.7, 1.494640399934724, 1, , , 5.000000, 19.000000, 2.000000,3.000000,1.000000,6.000000,0.500000,1.000000
51, test, 2, probe, 15, 1, 3, 3, 1, 0.3, 0.6, right, 2, 0.3, 0.4, 0.6, 0.7, 1.0597369999159127, 0, 34.43658447265625, 1.96662319987081, 5.000000, 19.000000, 3.000000,3.000000,1.000000,6.000000,0.500000,1.000000
51, test, 2, no_probe, 16, 3, 2, 2, 3, 0.6, 0.4, right, 2, 0.3, 0.4, 0.6, 0.7, 0.3947419000323862, 1, , , 6.000000, 20.000000, 1.000000,3.000000,1.000000,6.000000,0.500000,1.000000
51, test, 2, no_probe, 17, 4, 3, 4, 3, 0.7, 0.6, left, 1, 0.3, 0.4, 0.6, 0.7, 0.3841561998706311, 1, , , 7.000000, 21.000000, 2.000000,3.000000,1.000000,6.000000,0.500000,1.000000
51, test, 2, probe, 18, 4, 2, 2, 4, 0.7, 0.4, right, 2, 0.3, 0.4, 0.6, 0.7, 0.49959270004183054, 0, 36.795196533203125, 2.0499569999519736, 7.000000, 21.000000, 3.000000,3.000000,1.000000,6.000000,0.500000,1.000000
51, test, 2, no_probe, 19, 4, 1, 1, 4, 0.7, 0.3, right, 2, 0.3, 0.4, 0.6, 0.7, 0.46077090012840927, 1, , , 8.000000, 22.000000, 1.000000,3.000000,1.000000,6.000000,0.500000,1.000000
51, test, 2, no_probe, 20, 4, 3, 4, 3, 0.7, 0.6, left, 1, 0.3, 0.4, 0.6, 0.7, 0.3569378999527544, 1, , , 9.000000, 23.000000, 2.000000,3.000000,1.000000,6.000000,0.500000,1.000000
51, test, 2, probe, 21, 4, 2, 2, 4, 0.7, 0.4, right, 2, 0.3, 0.4, 0.6, 0.7, 0.2711835999507457, 1, 64.17239379882812, 1.3166390000842512, 10.000000, 24.000000, 3.000000,3.000000,1.000000,6.000000,0.500000,1.000000
51, test, 2, no_probe, 22, 4, 2, 2, 4, 0.7, 0.4, right, 2, 0.3, 0.4, 0.6, 0.7, 0.45574049977585673, 1, , , 11.000000, 25.000000, 1.000000,2.000000,1.000000,6.000000,0.500000,1.000000
51, test, 2, probe, 23, 3, 1, 3, 1, 0.6, 0.3, left, 1, 0.3, 0.4, 0.6, 0.7, 0.41925669996999204, 0, 40.06329345703125, 1.3833026001229882, 11.000000, 25.000000, 2.000000,2.000000,1.000000,6.000000,0.500000,1.000000
51, test, 2, no_probe, 24, 3, 1, 1, 3, 0.6, 0.3, right, 2, 0.3, 0.4, 0.6, 0.7, 0.5274728001095355, 1, , , 12.000000, 26.000000, 1.000000,3.000000,1.000000,6.000000,0.500000,1.000000
51, test, 2, no_probe, 25, 4, 2, 4, 2, 0.7, 0.4, left, 1, 0.3, 0.4, 0.6, 0.7, 0.4171269000507891, 0, , , 12.000000, 26.000000, 2.000000,3.000000,1.000000,6.000000,0.500000,1.000000
51, test, 3, no_probe, 1, 2, 4, 4, 2, 0.4, 0.7, right, 2, 0.3, 0.4, 0.6, 0.7, 0.5873438001144677, 0, , , 0.000000, 26.000000, 1.000000,2.000000,1.000000,6.000000,0.500000,1.000000
51, test, 3, probe, 2, 4, 2, 4, 2, 0.7, 0.4, left, 1, 0.3, 0.4, 0.6, 0.7, 0.47772550000809133, 1, 70.54876708984375, 3.016623199917376, 1.000000, 27.000000, 2.000000,2.000000,1.000000,6.000000,0.500000,1.000000
51, test, 3, no_probe, 3, 1, 3, 1, 3, 0.3, 0.6, left, 1, 0.3, 0.4, 0.6, 0.7, 0.793808699818328, 0, , , 1.000000, 27.000000, 1.000000,3.000000,1.000000,6.000000,0.500000,1.000000
51, test, 3, no_probe, 4, 2, 4, 4, 2, 0.4, 0.7, right, 2, 0.3, 0.4, 0.6, 0.7, 0.5009788998868316, 0, , , 1.000000, 27.000000, 2.000000,3.000000,1.000000,6.000000,0.500000,1.000000
51, test, 3, probe, 5, 4, 3, 4, 3, 0.7, 0.6, left, 1, 0.3, 0.4, 0.6, 0.7, 0.5288897000718862, 0, 70.26510620117188, 2.5333199000451714, 1.000000, 27.000000, 3.000000,3.000000,1.000000,6.000000,0.500000,1.000000
51, test, 3, no_probe, 6, 3, 1, 1, 3, 0.6, 0.3, right, 2, 0.3, 0.4, 0.6, 0.7, 0.4903145998250693, 0, , , 1.000000, 27.000000, 1.000000,2.000000,1.000000,6.000000,0.500000,1.000000
51, test, 3, probe, 7, 1, 4, 1, 4, 0.3, 0.7, left, 1, 0.3, 0.4, 0.6, 0.7, 0.6896977000869811, 1, 81.52267456054688, 1.8833204000256956, 2.000000, 28.000000, 2.000000,2.000000,1.000000,6.000000,0.500000,1.000000
51, test, 3, no_probe, 8, 4, 3, 4, 3, 0.7, 0.6, left, 1, 0.3, 0.4, 0.6, 0.7, 1.1343045998364687, 1, , , 3.000000, 29.000000, 1.000000,2.000000,1.000000,6.000000,0.500000,1.000000
51, test, 3, probe, 9, 1, 2, 2, 1, 0.3, 0.4, right, 2, 0.3, 0.4, 0.6, 0.7, 0.8666670001111925, 0, 75.93829345703125, 1.6499596000649035, 3.000000, 29.000000, 2.000000,2.000000,1.000000,6.000000,0.500000,1.000000
51, test, 3, no_probe, 10, 4, 3, 3, 4, 0.7, 0.6, right, 2, 0.3, 0.4, 0.6, 0.7, 1.1702539999969304, 0, , , 3.000000, 29.000000, 1.000000,2.000000,1.000000,6.000000,0.500000,1.000000
51, test, 3, probe, 11, 2, 1, 1, 2, 0.4, 0.3, right, 2, 0.3, 0.4, 0.6, 0.7, 1.0601894999854267, 0, 41.518890380859375, 1.6166468998417258, 3.000000, 29.000000, 2.000000,2.000000,1.000000,6.000000,0.500000,1.000000
51, test, 3, no_probe, 12, 2, 1, 2, 1, 0.4, 0.3, left, 1, 0.3, 0.4, 0.6, 0.7, 0.7130843999329954, 0, , , 3.000000, 29.000000, 1.000000,2.000000,1.000000,6.000000,0.500000,1.000000
51, test, 3, probe, 13, 1, 2, 2, 1, 0.3, 0.4, right, 2, 0.3, 0.4, 0.6, 0.7, 0.49374040006659925, 0, 50.8004150390625, 3.6166193999815732, 3.000000, 29.000000, 2.000000,2.000000,1.000000,6.000000,0.500000,1.000000
51, test, 3, no_probe, 14, 4, 2, 4, 2, 0.7, 0.4, left, 1, 0.3, 0.4, 0.6, 0.7, 0.7627377000171691, 1, , , 4.000000, 30.000000, 1.000000,3.000000,1.000000,6.000000,0.500000,1.000000
51, test, 3, no_probe, 15, 3, 1, 1, 3, 0.6, 0.3, right, 2, 0.3, 0.4, 0.6, 0.7, 0.5245387000031769, 0, , , 4.000000, 30.000000, 2.000000,3.000000,1.000000,6.000000,0.500000,1.000000
51, test, 3, probe, 16, 4, 1, 4, 1, 0.7, 0.3, left, 1, 0.3, 0.4, 0.6, 0.7, 0.5500488001853228, 1, 62.22247314453125, 1.6500527001917362, 5.000000, 31.000000, 3.000000,3.000000,1.000000,6.000000,0.500000,1.000000
51, test, 3, no_probe, 17, 2, 3, 3, 2, 0.4, 0.6, right, 2, 0.3, 0.4, 0.6, 0.7, 1.8383494999725372, 0, , , 5.000000, 31.000000, 1.000000,3.000000,1.000000,6.000000,0.500000,1.000000
51, test, 3, no_probe, 18, 4, 3, 4, 3, 0.7, 0.6, left, 1, 0.3, 0.4, 0.6, 0.7, 0.4108232001308352, 1, , , 6.000000, 32.000000, 2.000000,3.000000,1.000000,6.000000,0.500000,1.000000
51, test, 3, probe, 19, 1, 2, 1, 2, 0.3, 0.4, left, 1, 0.3, 0.4, 0.6, 0.7, 0.9388890999834985, 1, 65.1146240234375, 1.4833696999121457, 7.000000, 33.000000, 3.000000,3.000000,1.000000,6.000000,0.500000,1.000000
51, test, 3, no_probe, 20, 4, 3, 3, 4, 0.7, 0.6, right, 2, 0.3, 0.4, 0.6, 0.7, 0.38276159996166825, 1, , , 8.000000, 34.000000, 1.000000,2.000000,1.000000,6.000000,0.500000,1.000000
51, test, 3, probe, 21, 4, 3, 3, 4, 0.7, 0.6, right, 2, 0.3, 0.4, 0.6, 0.7, 0.3445594001095742, 0, 35.5855712890625, 1.7333445001859218, 8.000000, 34.000000, 2.000000,2.000000,1.000000,6.000000,0.500000,1.000000
51, test, 3, no_probe, 22, 4, 2, 4, 2, 0.7, 0.4, left, 1, 0.3, 0.4, 0.6, 0.7, 0.7534934000577778, 1, , , 9.000000, 35.000000, 1.000000,2.000000,1.000000,6.000000,0.500000,1.000000
51, test, 3, probe, 23, 2, 3, 3, 2, 0.4, 0.6, right, 2, 0.3, 0.4, 0.6, 0.7, 0.4361270999070257, 1, 63.10076904296875, 1.349948599934578, 10.000000, 36.000000, 2.000000,2.000000,1.000000,6.000000,0.500000,1.000000
51, test, 3, no_probe, 24, 4, 1, 4, 1, 0.7, 0.3, left, 1, 0.3, 0.4, 0.6, 0.7, 0.5458661001175642, 0, , , 10.000000, 36.000000, 1.000000,2.000000,1.000000,6.000000,0.500000,1.000000
51, test, 3, probe, 25, 3, 2, 2, 3, 0.6, 0.4, right, 2, 0.3, 0.4, 0.6, 0.7, 0.5855665998533368, 1, 60.5235595703125, 1.7666438999585807, 11.000000, 37.000000, 2.000000,2.000000,1.000000,6.000000,0.500000,1.000000
51, test, 4, no_probe, 1, 4, 2, 2, 4, 0.7, 0.4, right, 2, 0.3, 0.4, 0.6, 0.7, 0.6422636001370847, 0, , , 0.000000, 37.000000, 1.000000,3.000000,1.000000,6.000000,0.500000,1.000000
51, test, 4, no_probe, 2, 2, 3, 3, 2, 0.4, 0.6, right, 2, 0.3, 0.4, 0.6, 0.7, 0.9238775998819619, 0, , , 0.000000, 37.000000, 2.000000,3.000000,1.000000,6.000000,0.500000,1.000000
51, test, 4, probe, 3, 1, 3, 1, 3, 0.3, 0.6, left, 1, 0.3, 0.4, 0.6, 0.7, 0.9161844998598099, 0, 65.3031005859375, 2.2162534999661148, 0.000000, 37.000000, 3.000000,3.000000,1.000000,6.000000,0.500000,1.000000
51, test, 4, no_probe, 4, 1, 2, 1, 2, 0.3, 0.4, left, 1, 0.3, 0.4, 0.6, 0.7, 0.5777110999915749, 1, , , 1.000000, 38.000000, 1.000000,2.000000,1.000000,6.000000,0.500000,1.000000
51, test, 4, probe, 5, 1, 3, 1, 3, 0.3, 0.6, left, 1, 0.3, 0.4, 0.6, 0.7, 0.7641106999944896, 0, 38.301666259765625, 1.699972600210458, 1.000000, 38.000000, 2.000000,2.000000,1.000000,6.000000,0.500000,1.000000
51, test, 4, no_probe, 6, 2, 3, 3, 2, 0.4, 0.6, right, 2, 0.3, 0.4, 0.6, 0.7, 1.0056613001506776, 0, , , 1.000000, 38.000000, 1.000000,2.000000,1.000000,6.000000,0.500000,1.000000
51, test, 4, probe, 7, 2, 4, 2, 4, 0.4, 0.7, left, 1, 0.3, 0.4, 0.6, 0.7, 2.4153404999524355, 1, 62.679718017578125, 1.3499996999744326, 2.000000, 39.000000, 2.000000,2.000000,1.000000,6.000000,0.500000,1.000000
51, test, 4, no_probe, 8, 3, 1, 3, 1, 0.6, 0.3, left, 1, 0.3, 0.4, 0.6, 0.7, 1.4200266001280397, 1, , , 3.000000, 40.000000, 1.000000,2.000000,1.000000,6.000000,0.500000,1.000000
51, test, 4, probe, 9, 3, 2, 3, 2, 0.6, 0.4, left, 1, 0.3, 0.4, 0.6, 0.7, 0.9051988997962326, 1, 83.87216186523438, 2.2166713001206517, 4.000000, 41.000000, 2.000000,2.000000,1.000000,6.000000,0.500000,1.000000
51, test, 4, no_probe, 10, 3, 2, 2, 3, 0.6, 0.4, right, 2, 0.3, 0.4, 0.6, 0.7, 1.5536464999895543, 0, , , 4.000000, 41.000000, 1.000000,2.000000,1.000000,6.000000,0.500000,1.000000
51, test, 4, probe, 11, 2, 3, 2, 3, 0.4, 0.6, left, 1, 0.3, 0.4, 0.6, 0.7, 1.0367404997814447, 0, 62.22064208984375, 2.349970899987966, 4.000000, 41.000000, 2.000000,2.000000,1.000000,6.000000,0.500000,1.000000
51, test, 4, no_probe, 12, 1, 2, 1, 2, 0.3, 0.4, left, 1, 0.3, 0.4, 0.6, 0.7, 1.2774016000330448, 1, , , 5.000000, 42.000000, 1.000000,3.000000,1.000000,6.000000,0.500000,1.000000
51, test, 4, no_probe, 13, 1, 3, 1, 3, 0.3, 0.6, left, 1, 0.3, 0.4, 0.6, 0.7, 0.5426556000020355, 0, , , 5.000000, 42.000000, 2.000000,3.000000,1.000000,6.000000,0.500000,1.000000
51, test, 4, probe, 14, 1, 4, 4, 1, 0.3, 0.7, right, 2, 0.3, 0.4, 0.6, 0.7, 0.5156425000168383, 1, 66.36160278320312, 1.5833241001237184, 6.000000, 43.000000, 3.000000,3.000000,1.000000,6.000000,0.500000,1.000000
51, test, 4, no_probe, 15, 2, 4, 2, 4, 0.4, 0.7, left, 1, 0.3, 0.4, 0.6, 0.7, 0.9797142001334578, 0, , , 6.000000, 43.000000, 1.000000,2.000000,1.000000,6.000000,0.500000,1.000000
51, test, 4, probe, 16, 3, 2, 2, 3, 0.6, 0.4, right, 2, 0.3, 0.4, 0.6, 0.7, 0.6410205999854952, 0, 60.9794921875, 1.4499776000156999, 6.000000, 43.000000, 2.000000,2.000000,1.000000,6.000000,0.500000,1.000000
51, test, 4, no_probe, 17, 3, 1, 3, 1, 0.6, 0.3, left, 1, 0.3, 0.4, 0.6, 0.7, 0.8785949000157416, 0, , , 6.000000, 43.000000, 1.000000,2.000000,1.000000,6.000000,0.500000,1.000000
51, test, 4, probe, 18, 3, 1, 1, 3, 0.6, 0.3, right, 2, 0.3, 0.4, 0.6, 0.7, 0.8198591000400484, 1, 74.64968872070312, 2.133329699980095, 7.000000, 44.000000, 2.000000,2.000000,1.000000,6.000000,0.500000,1.000000
51, test, 4, no_probe, 19, 3, 2, 2, 3, 0.6, 0.4, right, 2, 0.3, 0.4, 0.6, 0.7, 0.6815446999389678, 0, , , 7.000000, 44.000000, 1.000000,3.000000,1.000000,6.000000,0.500000,1.000000
51, test, 4, no_probe, 20, 1, 4, 1, 4, 0.3, 0.7, left, 1, 0.3, 0.4, 0.6, 0.7, 0.5363067998550832, 1, , , 8.000000, 45.000000, 2.000000,3.000000,1.000000,6.000000,0.500000,1.000000
51, test, 4, probe, 21, 2, 1, 2, 1, 0.4, 0.3, left, 1, 0.3, 0.4, 0.6, 0.7, 0.5768569000065327, 1, 76.6910400390625, 1.7166177001781762, 9.000000, 46.000000, 3.000000,3.000000,1.000000,6.000000,0.500000,1.000000
51, test, 4, no_probe, 22, 1, 4, 4, 1, 0.3, 0.7, right, 2, 0.3, 0.4, 0.6, 0.7, 0.5522454001475126, 0, , , 9.000000, 46.000000, 1.000000,3.000000,1.000000,6.000000,0.500000,1.000000
51, test, 4, no_probe, 23, 3, 4, 3, 4, 0.6, 0.7, left, 1, 0.3, 0.4, 0.6, 0.7, 0.5646140000317246, 0, , , 9.000000, 46.000000, 2.000000,3.000000,1.000000,6.000000,0.500000,1.000000
51, test, 4, probe, 24, 1, 3, 3, 1, 0.3, 0.6, right, 2, 0.3, 0.4, 0.6, 0.7, 0.6837398998904973, 0, 65.46490478515625, 1.6166827999986708, 9.000000, 46.000000, 3.000000,3.000000,1.000000,6.000000,0.500000,1.000000
51, test, 4, no_probe, 25, 2, 3, 3, 2, 0.4, 0.6, right, 2, 0.3, 0.4, 0.6, 0.7, 0.6275869000237435, 0, , , 9.000000, 46.000000, 1.000000,3.000000,1.000000,6.000000,0.500000,1.000000
51, test, 5, no_probe, 1, 3, 1, 1, 3, 0.6, 0.3, right, 2, 0.3, 0.4, 0.6, 0.7, 0.28474130015820265, 1, , , 1.000000, 47.000000, 1.000000,2.000000,1.000000,6.000000,0.500000,1.000000
51, test, 5, probe, 2, 1, 2, 2, 1, 0.3, 0.4, right, 2, 0.3, 0.4, 0.6, 0.7, 0.3943880998995155, 1, 67.80950927734375, 3.316647300031036, 2.000000, 48.000000, 2.000000,2.000000,1.000000,6.000000,0.500000,1.000000
51, test, 5, no_probe, 3, 1, 4, 1, 4, 0.3, 0.7, left, 1, 0.3, 0.4, 0.6, 0.7, 1.0702326998580247, 0, , , 2.000000, 48.000000, 1.000000,3.000000,1.000000,6.000000,0.500000,1.000000
51, test, 5, no_probe, 4, 2, 3, 3, 2, 0.4, 0.6, right, 2, 0.3, 0.4, 0.6, 0.7, 0.5562659001443535, 1, , , 3.000000, 49.000000, 2.000000,3.000000,1.000000,6.000000,0.500000,1.000000
51, test, 5, probe, 5, 3, 1, 1, 3, 0.6, 0.3, right, 2, 0.3, 0.4, 0.6, 0.7, 1.0643160999752581, 1, 77.6885986328125, 1.683346699923277, 4.000000, 50.000000, 3.000000,3.000000,1.000000,6.000000,0.500000,1.000000
51, test, 5, no_probe, 6, 3, 2, 2, 3, 0.6, 0.4, right, 2, 0.3, 0.4, 0.6, 0.7, 0.6346444999799132, 1, , , 5.000000, 51.000000, 1.000000,2.000000,1.000000,6.000000,0.500000,1.000000
51, test, 5, probe, 7, 1, 4, 1, 4, 0.3, 0.7, left, 1, 0.3, 0.4, 0.6, 0.7, 0.47027429984882474, 0, 63.2879638671875, 3.5666571999900043, 5.000000, 51.000000, 2.000000,2.000000,1.000000,6.000000,0.500000,1.000000
51, test, 5, no_probe, 8, 4, 1, 4, 1, 0.7, 0.3, left, 1, 0.3, 0.4, 0.6, 0.7, 1.421505499863997, 0, , , 5.000000, 51.000000, 1.000000,2.000000,1.000000,6.000000,0.500000,1.000000
51, test, 5, probe, 9, 3, 4, 4, 3, 0.6, 0.7, right, 2, 0.3, 0.4, 0.6, 0.7, 0.5010677999816835, 1, 85.14578247070312, 2.0165852000936866, 6.000000, 52.000000, 2.000000,2.000000,1.000000,6.000000,0.500000,1.000000
51, test, 5, no_probe, 10, 1, 4, 4, 1, 0.3, 0.7, right, 2, 0.3, 0.4, 0.6, 0.7, 0.512050700141117, 1, , , 7.000000, 53.000000, 1.000000,3.000000,1.000000,6.000000,0.500000,1.000000
51, test, 5, no_probe, 11, 1, 4, 4, 1, 0.3, 0.7, right, 2, 0.3, 0.4, 0.6, 0.7, 0.44664930016733706, 1, , , 8.000000, 54.000000, 2.000000,3.000000,1.000000,6.000000,0.500000,1.000000
51, test, 5, probe, 12, 3, 1, 3, 1, 0.6, 0.3, left, 1, 0.3, 0.4, 0.6, 0.7, 1.684212899999693, 0, 80.92352294921875, 2.34996429993771, 8.000000, 54.000000, 3.000000,3.000000,1.000000,6.000000,0.500000,1.000000
51, test, 5, no_probe, 13, 1, 3, 1, 3, 0.3, 0.6, left, 1, 0.3, 0.4, 0.6, 0.7, 0.6964480001479387, 0, , , 8.000000, 54.000000, 1.000000,3.000000,1.000000,6.000000,0.500000,1.000000
51, test, 5, no_probe, 14, 2, 4, 4, 2, 0.4, 0.7, right, 2, 0.3, 0.4, 0.6, 0.7, 0.5329322000034153, 0, , , 8.000000, 54.000000, 2.000000,3.000000,1.000000,6.000000,0.500000,1.000000
51, test, 5, probe, 15, 1, 3, 1, 3, 0.3, 0.6, left, 1, 0.3, 0.4, 0.6, 0.7, 0.4382490999996662, 0, 21.07342529296875, 1.9000005000270903, 8.000000, 54.000000, 3.000000,3.000000,1.000000,6.000000,0.500000,1.000000
51, test, 5, no_probe, 16, 2, 4, 4, 2, 0.4, 0.7, right, 2, 0.3, 0.4, 0.6, 0.7, 0.49670969997532666, 1, , , 9.000000, 55.000000, 1.000000,3.000000,1.000000,6.000000,0.500000,1.000000
51, test, 5, no_probe, 17, 2, 4, 4, 2, 0.4, 0.7, right, 2, 0.3, 0.4, 0.6, 0.7, 0.3174149999395013, 0, , , 9.000000, 55.000000, 2.000000,3.000000,1.000000,6.000000,0.500000,1.000000
51, test, 5, probe, 18, 2, 1, 2, 1, 0.4, 0.3, left, 1, 0.3, 0.4, 0.6, 0.7, 0.8420316001866013, 0, 49.996673583984375, 1.8165734999347478, 9.000000, 55.000000, 3.000000,3.000000,1.000000,6.000000,0.500000,1.000000
51, test, 5, no_probe, 19, 4, 3, 3, 4, 0.7, 0.6, right, 2, 0.3, 0.4, 0.6, 0.7, 0.5073542001191527, 1, , , 10.000000, 56.000000, 1.000000,3.000000,1.000000,6.000000,0.500000,1.000000
51, test, 5, no_probe, 20, 4, 1, 1, 4, 0.7, 0.3, right, 2, 0.3, 0.4, 0.6, 0.7, 0.5608163999859244, 1, , , 11.000000, 57.000000, 2.000000,3.000000,1.000000,6.000000,0.500000,1.000000
51, test, 5, probe, 21, 1, 3, 1, 3, 0.3, 0.6, left, 1, 0.3, 0.4, 0.6, 0.7, 0.6253092000260949, 1, 68.63107299804688, 1.8499388000927866, 12.000000, 58.000000, 3.000000,3.000000,1.000000,6.000000,0.500000,1.000000
51, test, 5, no_probe, 22, 4, 1, 4, 1, 0.7, 0.3, left, 1, 0.3, 0.4, 0.6, 0.7, 0.5623490998987108, 0, , , 12.000000, 58.000000, 1.000000,2.000000,1.000000,6.000000,0.500000,1.000000
51, test, 5, probe, 23, 2, 3, 3, 2, 0.4, 0.6, right, 2, 0.3, 0.4, 0.6, 0.7, 0.4845238998532295, 0, 34.285797119140625, 1.6166616999544203, 12.000000, 58.000000, 2.000000,2.000000,1.000000,6.000000,0.500000,1.000000
51, test, 5, no_probe, 24, 2, 1, 1, 2, 0.4, 0.3, right, 2, 0.3, 0.4, 0.6, 0.7, 0.5572619999293238, 0, , , 12.000000, 58.000000, 1.000000,2.000000,1.000000,6.000000,0.500000,1.000000
51, test, 5, probe, 25, 1, 3, 1, 3, 0.3, 0.6, left, 1, 0.3, 0.4, 0.6, 0.7, 0.21227680006995797, 0, 50.60107421875, 2.2499925999436527, 12.000000, 58.000000, 2.000000,2.000000,1.000000,6.000000,0.500000,1.000000
51, test, 6, no_probe, 1, 4, 2, 2, 4, 0.7, 0.4, right, 2, 0.3, 0.4, 0.6, 0.7, 0.5229791000019759, 1, , , 1.000000, 59.000000, 1.000000,2.000000,1.000000,6.000000,0.500000,1.000000
51, test, 6, probe, 2, 1, 2, 1, 2, 0.3, 0.4, left, 1, 0.3, 0.4, 0.6, 0.7, 0.290458100149408, 1, 73.59445190429688, 1.6666335999034345, 2.000000, 60.000000, 2.000000,2.000000,1.000000,6.000000,0.500000,1.000000
51, test, 6, no_probe, 3, 3, 2, 3, 2, 0.6, 0.4, left, 1, 0.3, 0.4, 0.6, 0.7, 0.8444234000053257, 0, , , 2.000000, 60.000000, 1.000000,2.000000,1.000000,6.000000,0.500000,1.000000
51, test, 6, probe, 4, 2, 3, 3, 2, 0.4, 0.6, right, 2, 0.3, 0.4, 0.6, 0.7, 0.3250543000176549, 1, 77.01046752929688, 1.449949599802494, 3.000000, 61.000000, 2.000000,2.000000,1.000000,6.000000,0.500000,1.000000
51, test, 6, no_probe, 5, 2, 4, 4, 2, 0.4, 0.7, right, 2, 0.3, 0.4, 0.6, 0.7, 0.4096021999139339, 1, , , 4.000000, 62.000000, 1.000000,3.000000,1.000000,6.000000,0.500000,1.000000
51, test, 6, no_probe, 6, 4, 2, 4, 2, 0.7, 0.4, left, 1, 0.3, 0.4, 0.6, 0.7, 0.42794040008448064, 0, , , 4.000000, 62.000000, 2.000000,3.000000,1.000000,6.000000,0.500000,1.000000
51, test, 6, probe, 7, 1, 3, 3, 1, 0.3, 0.6, right, 2, 0.3, 0.4, 0.6, 0.7, 1.1690698999445885, 1, 85.30902099609375, 1.866597400046885, 5.000000, 63.000000, 3.000000,3.000000,1.000000,6.000000,0.500000,1.000000
51, test, 6, no_probe, 8, 4, 2, 4, 2, 0.7, 0.4, left, 1, 0.3, 0.4, 0.6, 0.7, 0.6914532000664622, 1, , , 6.000000, 64.000000, 1.000000,2.000000,1.000000,6.000000,0.500000,1.000000
51, test, 6, probe, 9, 4, 3, 3, 4, 0.7, 0.6, right, 2, 0.3, 0.4, 0.6, 0.7, 0.717382799834013, 0, 58.672607421875, 1.5166820001322776, 6.000000, 64.000000, 2.000000,2.000000,1.000000,6.000000,0.500000,1.000000
51, test, 6, no_probe, 10, 4, 2, 4, 2, 0.7, 0.4, left, 1, 0.3, 0.4, 0.6, 0.7, 0.4841731998603791, 1, , , 7.000000, 65.000000, 1.000000,2.000000,1.000000,6.000000,0.500000,1.000000
51, test, 6, probe, 11, 1, 3, 3, 1, 0.3, 0.6, right, 2, 0.3, 0.4, 0.6, 0.7, 0.4141224999912083, 0, 69.20745849609375, 1.6999703000765294, 7.000000, 65.000000, 2.000000,2.000000,1.000000,6.000000,0.500000,1.000000
51, test, 6, no_probe, 12, 4, 1, 4, 1, 0.7, 0.3, left, 1, 0.3, 0.4, 0.6, 0.7, 0.5041801000479609, 1, , , 8.000000, 66.000000, 1.000000,2.000000,1.000000,6.000000,0.500000,1.000000
51, test, 6, probe, 13, 3, 4, 4, 3, 0.6, 0.7, right, 2, 0.3, 0.4, 0.6, 0.7, 0.30243810010142624, 0, 49.996429443359375, 1.9499682998284698, 8.000000, 66.000000, 2.000000,2.000000,1.000000,6.000000,0.500000,1.000000
51, test, 6, no_probe, 14, 4, 3, 4, 3, 0.7, 0.6, left, 1, 0.3, 0.4, 0.6, 0.7, 0.28116109990514815, 1, , , 9.000000, 67.000000, 1.000000,3.000000,1.000000,6.000000,0.500000,1.000000
51, test, 6, no_probe, 15, 3, 4, 4, 3, 0.6, 0.7, right, 2, 0.3, 0.4, 0.6, 0.7, 0.177578300004825, 1, , , 10.000000, 68.000000, 2.000000,3.000000,1.000000,6.000000,0.500000,1.000000
51, test, 6, probe, 16, 1, 3, 1, 3, 0.3, 0.6, left, 1, 0.3, 0.4, 0.6, 0.7, 0.4047646000981331, 0, 49.997344970703125, 1.4500021999701858, 10.000000, 68.000000, 3.000000,3.000000,1.000000,6.000000,0.500000,1.000000
51, test, 6, no_probe, 17, 3, 4, 3, 4, 0.6, 0.7, left, 1, 0.3, 0.4, 0.6, 0.7, 0.4505568000022322, 1, , , 11.000000, 69.000000, 1.000000,3.000000,1.000000,6.000000,0.500000,1.000000
51, test, 6, no_probe, 18, 3, 1, 3, 1, 0.6, 0.3, left, 1, 0.3, 0.4, 0.6, 0.7, 0.39849839988164604, 1, , , 12.000000, 70.000000, 2.000000,3.000000,1.000000,6.000000,0.500000,1.000000
51, test, 6, probe, 19, 4, 1, 1, 4, 0.7, 0.3, right, 2, 0.3, 0.4, 0.6, 0.7, 0.3954499000683427, 1, 76.31082153320312, 1.9166522999294102, 13.000000, 71.000000, 3.000000,3.000000,1.000000,6.000000,0.500000,1.000000
51, test, 6, no_probe, 20, 4, 3, 4, 3, 0.7, 0.6, left, 1, 0.3, 0.4, 0.6, 0.7, 0.4959602998569608, 1, , , 14.000000, 72.000000, 1.000000,3.000000,1.000000,6.000000,0.500000,1.000000
51, test, 6, no_probe, 21, 3, 1, 1, 3, 0.6, 0.3, right, 2, 0.3, 0.4, 0.6, 0.7, 0.4415568998083472, 1, , , 15.000000, 73.000000, 2.000000,3.000000,1.000000,6.000000,0.500000,1.000000
51, test, 6, probe, 22, 4, 1, 4, 1, 0.7, 0.3, left, 1, 0.3, 0.4, 0.6, 0.7, 0.3056022999808192, 0, 49.99786376953125, 1.1666313000023365, 15.000000, 73.000000, 3.000000,3.000000,1.000000,6.000000,0.500000,1.000000
51, test, 6, no_probe, 23, 1, 2, 1, 2, 0.3, 0.4, left, 1, 0.3, 0.4, 0.6, 0.7, 0.3671715999953449, 1, , , 16.000000, 74.000000, 1.000000,2.000000,1.000000,6.000000,0.500000,1.000000
51, test, 6, probe, 24, 2, 4, 4, 2, 0.4, 0.7, right, 2, 0.3, 0.4, 0.6, 0.7, 0.18926390004344285, 1, 65.92059326171875, 1.583329499932006, 17.000000, 75.000000, 2.000000,2.000000,1.000000,6.000000,0.500000,1.000000
51, test, 6, no_probe, 25, 3, 1, 1, 3, 0.6, 0.3, right, 2, 0.3, 0.4, 0.6, 0.7, 0.1266534999012947, 0, , , 17.000000, 75.000000, 1.000000,3.000000,1.000000,6.000000,0.500000,1.000000
51, test, 7, no_probe, 1, 1, 2, 2, 1, 0.3, 0.4, right, 2, 0.3, 0.4, 0.6, 0.7, 0.4763960998971015, 0, , , 0.000000, 75.000000, 1.000000,3.000000,1.000000,6.000000,0.500000,1.000000
51, test, 7, no_probe, 2, 2, 4, 2, 4, 0.4, 0.7, left, 1, 0.3, 0.4, 0.6, 0.7, 0.2793426997959614, 0, , , 0.000000, 75.000000, 2.000000,3.000000,1.000000,6.000000,0.500000,1.000000
51, test, 7, probe, 3, 1, 3, 3, 1, 0.3, 0.6, right, 2, 0.3, 0.4, 0.6, 0.7, 0.24606909998692572, 0, 49.997955322265625, 1.1162666999734938, 0.000000, 75.000000, 3.000000,3.000000,1.000000,6.000000,0.500000,1.000000
51, test, 7, no_probe, 4, 3, 4, 3, 4, 0.6, 0.7, left, 1, 0.3, 0.4, 0.6, 0.7, 0.3474644999951124, 1, , , 1.000000, 76.000000, 1.000000,3.000000,1.000000,6.000000,0.500000,1.000000
51, test, 7, no_probe, 5, 2, 3, 3, 2, 0.4, 0.6, right, 2, 0.3, 0.4, 0.6, 0.7, 0.3310662000440061, 1, , , 2.000000, 77.000000, 2.000000,3.000000,1.000000,6.000000,0.500000,1.000000
51, test, 7, probe, 6, 2, 3, 3, 2, 0.4, 0.6, right, 2, 0.3, 0.4, 0.6, 0.7, 0.5100183999165893, 1, 49.997894287109375, 1.1499844000209123, 3.000000, 78.000000, 3.000000,3.000000,1.000000,6.000000,0.500000,1.000000
51, test, 7, no_probe, 7, 1, 3, 3, 1, 0.3, 0.6, right, 2, 0.3, 0.4, 0.6, 0.7, 0.6931614000350237, 1, , , 4.000000, 79.000000, 1.000000,2.000000,1.000000,6.000000,0.500000,1.000000
51, test, 7, probe, 8, 1, 4, 4, 1, 0.3, 0.7, right, 2, 0.3, 0.4, 0.6, 0.7, 0.5149271998088807, 0, 35.7022705078125, 1.6499640999827534, 4.000000, 79.000000, 2.000000,2.000000,1.000000,6.000000,0.500000,1.000000
51, test, 7, no_probe, 9, 3, 2, 3, 2, 0.6, 0.4, left, 1, 0.3, 0.4, 0.6, 0.7, 0.639722399879247, 0, , , 4.000000, 79.000000, 1.000000,3.000000,1.000000,6.000000,0.500000,1.000000
51, test, 7, no_probe, 10, 1, 2, 2, 1, 0.3, 0.4, right, 2, 0.3, 0.4, 0.6, 0.7, 0.563611599849537, 0, , , 4.000000, 79.000000, 2.000000,3.000000,1.000000,6.000000,0.500000,1.000000
51, test, 7, probe, 11, 1, 4, 1, 4, 0.3, 0.7, left, 1, 0.3, 0.4, 0.6, 0.7, 0.45032169995829463, 0, 20.42669677734375, 1.8999842000193894, 4.000000, 79.000000, 3.000000,3.000000,1.000000,6.000000,0.500000,1.000000
51, test, 7, no_probe, 12, 2, 3, 3, 2, 0.4, 0.6, right, 2, 0.3, 0.4, 0.6, 0.7, 0.4841924000065774, 0, , , 4.000000, 79.000000, 1.000000,3.000000,1.000000,6.000000,0.500000,1.000000
51, test, 7, no_probe, 13, 4, 1, 4, 1, 0.7, 0.3, left, 1, 0.3, 0.4, 0.6, 0.7, 0.27166239987127483, 1, , , 5.000000, 80.000000, 2.000000,3.000000,1.000000,6.000000,0.500000,1.000000
51, test, 7, probe, 14, 4, 1, 1, 4, 0.7, 0.3, right, 2, 0.3, 0.4, 0.6, 0.7, 0.39451760007068515, 0, 16.979400634765625, 2.416569499997422, 5.000000, 80.000000, 3.000000,3.000000,1.000000,6.000000,0.500000,1.000000
51, test, 7, no_probe, 15, 4, 2, 4, 2, 0.7, 0.4, left, 1, 0.3, 0.4, 0.6, 0.7, 0.6771400000434369, 1, , , 6.000000, 81.000000, 1.000000,2.000000,1.000000,6.000000,0.500000,1.000000
51, test, 7, probe, 16, 3, 1, 1, 3, 0.6, 0.3, right, 2, 0.3, 0.4, 0.6, 0.7, 0.4529216999653727, 0, 21.124481201171875, 1.783297099871561, 6.000000, 81.000000, 2.000000,2.000000,1.000000,6.000000,0.500000,1.000000
51, test, 7, no_probe, 17, 2, 1, 1, 2, 0.4, 0.3, right, 2, 0.3, 0.4, 0.6, 0.7, 0.5594601999036968, 1, , , 7.000000, 82.000000, 1.000000,2.000000,1.000000,6.000000,0.500000,1.000000
51, test, 7, probe, 18, 3, 2, 3, 2, 0.6, 0.4, left, 1, 0.3, 0.4, 0.6, 0.7, 0.3433025998529047, 1, 70.51748657226562, 3.3166104999836534, 8.000000, 83.000000, 2.000000,2.000000,1.000000,6.000000,0.500000,1.000000
51, test, 7, no_probe, 19, 3, 1, 3, 1, 0.6, 0.3, left, 1, 0.3, 0.4, 0.6, 0.7, 0.4607396998908371, 1, , , 9.000000, 84.000000, 1.000000,3.000000,1.000000,6.000000,0.500000,1.000000
51, test, 7, no_probe, 20, 3, 2, 2, 3, 0.6, 0.4, right, 2, 0.3, 0.4, 0.6, 0.7, 0.3925658001098782, 0, , , 9.000000, 84.000000, 2.000000,3.000000,1.000000,6.000000,0.500000,1.000000
51, test, 7, probe, 21, 2, 3, 2, 3, 0.4, 0.6, left, 1, 0.3, 0.4, 0.6, 0.7, 0.25880050007253885, 0, 29.893646240234375, 1.6666643999051303, 9.000000, 84.000000, 3.000000,3.000000,1.000000,6.000000,0.500000,1.000000
51, test, 7, no_probe, 22, 2, 4, 4, 2, 0.4, 0.7, right, 2, 0.3, 0.4, 0.6, 0.7, 1.7329621000681072, 1, , , 10.000000, 85.000000, 1.000000,3.000000,1.000000,6.000000,0.500000,1.000000
51, test, 7, no_probe, 23, 2, 3, 2, 3, 0.4, 0.6, left, 1, 0.3, 0.4, 0.6, 0.7, 0.28873810009099543, 1, , , 11.000000, 86.000000, 2.000000,3.000000,1.000000,6.000000,0.500000,1.000000
51, test, 7, probe, 24, 1, 2, 2, 1, 0.3, 0.4, right, 2, 0.3, 0.4, 0.6, 0.7, 0.3798732999712229, 0, 19.0521240234375, 2.1833232000935823, 11.000000, 86.000000, 3.000000,3.000000,1.000000,6.000000,0.500000,1.000000
51, test, 7, no_probe, 25, 3, 1, 3, 1, 0.6, 0.3, left, 1, 0.3, 0.4, 0.6, 0.7, 0.39235699991695583, 0, , , 11.000000, 86.000000, 1.000000,2.000000,1.000000,6.000000,0.500000,1.000000
51, test, 8, no_probe, 1, 4, 2, 2, 4, 0.7, 0.4, right, 2, 0.3, 0.4, 0.6, 0.7, 0.4604467998724431, 1, , , 1.000000, 87.000000, 1.000000,2.000000,1.000000,6.000000,0.500000,1.000000
51, test, 8, probe, 2, 2, 3, 2, 3, 0.4, 0.6, left, 1, 0.3, 0.4, 0.6, 0.7, 0.4289457998238504, 0, 59.92938232421875, 1.583346099825576, 1.000000, 87.000000, 2.000000,2.000000,1.000000,6.000000,0.500000,1.000000
51, test, 8, no_probe, 3, 4, 3, 3, 4, 0.7, 0.6, right, 2, 0.3, 0.4, 0.6, 0.7, 0.4567963001318276, 0, , , 1.000000, 87.000000, 1.000000,3.000000,1.000000,6.000000,0.500000,1.000000
51, test, 8, no_probe, 4, 3, 1, 3, 1, 0.6, 0.3, left, 1, 0.3, 0.4, 0.6, 0.7, 0.4260602998547256, 0, , , 1.000000, 87.000000, 2.000000,3.000000,1.000000,6.000000,0.500000,1.000000
51, test, 8, probe, 5, 4, 2, 2, 4, 0.7, 0.4, right, 2, 0.3, 0.4, 0.6, 0.7, 0.4399555001873523, 1, 63.517486572265625, 1.833272899966687, 2.000000, 88.000000, 3.000000,3.000000,1.000000,6.000000,0.500000,1.000000
51, test, 8, no_probe, 6, 2, 3, 2, 3, 0.4, 0.6, left, 1, 0.3, 0.4, 0.6, 0.7, 0.27358760009519756, 0, , , 2.000000, 88.000000, 1.000000,3.000000,1.000000,6.000000,0.500000,1.000000
51, test, 8, no_probe, 7, 4, 3, 3, 4, 0.7, 0.6, right, 2, 0.3, 0.4, 0.6, 0.7, 0.20045080012641847, 1, , , 3.000000, 89.000000, 2.000000,3.000000,1.000000,6.000000,0.500000,1.000000
51, test, 8, probe, 8, 4, 1, 1, 4, 0.7, 0.3, right, 2, 0.3, 0.4, 0.6, 0.7, 0.31392670003697276, 1, 78.60366821289062, 1.8166406999807805, 4.000000, 90.000000, 3.000000,3.000000,1.000000,6.000000,0.500000,1.000000
51, test, 8, no_probe, 9, 1, 4, 1, 4, 0.3, 0.7, left, 1, 0.3, 0.4, 0.6, 0.7, 0.23623950011096895, 0, , , 4.000000, 90.000000, 1.000000,2.000000,1.000000,6.000000,0.500000,1.000000
51, test, 8, probe, 10, 2, 3, 3, 2, 0.4, 0.6, right, 2, 0.3, 0.4, 0.6, 0.7, 0.2674632000271231, 0, 39.62322998046875, 2.2500021001324058, 4.000000, 90.000000, 2.000000,2.000000,1.000000,6.000000,0.500000,1.000000
51, test, 8, no_probe, 11, 3, 2, 2, 3, 0.6, 0.4, right, 2, 0.3, 0.4, 0.6, 0.7, 0.7114020001608878, 0, , , 4.000000, 90.000000, 1.000000,2.000000,1.000000,6.000000,0.500000,1.000000
51, test, 8, probe, 12, 3, 4, 3, 4, 0.6, 0.7, left, 1, 0.3, 0.4, 0.6, 0.7, 0.41635289997793734, 0, 12.375762939453125, 2.0833018000703305, 4.000000, 90.000000, 2.000000,2.000000,1.000000,6.000000,0.500000,1.000000
51, test, 8, no_probe, 13, 4, 2, 2, 4, 0.7, 0.4, right, 2, 0.3, 0.4, 0.6, 0.7, 0.48062889999710023, 1, , , 5.000000, 91.000000, 1.000000,3.000000,1.000000,6.000000,0.500000,1.000000
51, test, 8, no_probe, 14, 4, 3, 4, 3, 0.7, 0.6, left, 1, 0.3, 0.4, 0.6, 0.7, 0.24311939999461174, 0, , , 5.000000, 91.000000, 2.000000,3.000000,1.000000,6.000000,0.500000,1.000000
51, test, 8, probe, 15, 4, 3, 3, 4, 0.7, 0.6, right, 2, 0.3, 0.4, 0.6, 0.7, 0.5375725000631064, 0, 28.303314208984375, 1.5166439001914114, 5.000000, 91.000000, 3.000000,3.000000,1.000000,6.000000,0.500000,1.000000
51, test, 8, no_probe, 16, 4, 2, 4, 2, 0.7, 0.4, left, 1, 0.3, 0.4, 0.6, 0.7, 0.4325443999841809, 1, , , 6.000000, 92.000000, 1.000000,3.000000,1.000000,6.000000,0.500000,1.000000
51, test, 8, no_probe, 17, 3, 1, 1, 3, 0.6, 0.3, right, 2, 0.3, 0.4, 0.6, 0.7, 0.39721349999308586, 0, , , 6.000000, 92.000000, 2.000000,3.000000,1.000000,6.000000,0.500000,1.000000
51, test, 8, probe, 18, 4, 3, 4, 3, 0.7, 0.6, left, 1, 0.3, 0.4, 0.6, 0.7, 0.35709519986994565, 0, 25.946624755859375, 1.4833209000062197, 6.000000, 92.000000, 3.000000,3.000000,1.000000,6.000000,0.500000,1.000000
51, test, 8, no_probe, 19, 1, 3, 3, 1, 0.3, 0.6, right, 2, 0.3, 0.4, 0.6, 0.7, 0.9283851000946015, 0, , , 6.000000, 92.000000, 1.000000,3.000000,1.000000,6.000000,0.500000,1.000000
51, test, 8, no_probe, 20, 3, 4, 4, 3, 0.6, 0.7, right, 2, 0.3, 0.4, 0.6, 0.7, 0.9291133999358863, 1, , , 7.000000, 93.000000, 2.000000,3.000000,1.000000,6.000000,0.500000,1.000000
51, test, 8, probe, 21, 4, 2, 2, 4, 0.7, 0.4, right, 2, 0.3, 0.4, 0.6, 0.7, 1.6250118999741971, 0, 49.995880126953125, 2.2499280001502484, 7.000000, 93.000000, 3.000000,3.000000,1.000000,6.000000,0.500000,1.000000
51, test, 8, no_probe, 22, 1, 4, 1, 4, 0.3, 0.7, left, 1, 0.3, 0.4, 0.6, 0.7, 2.5184106999076903, 0, , , 7.000000, 93.000000, 1.000000,3.000000,1.000000,6.000000,0.500000,1.000000
51, test, 8, no_probe, 23, 2, 1, 1, 2, 0.4, 0.3, right, 2, 0.3, 0.4, 0.6, 0.7, 1.0471254999283701, 0, , , 7.000000, 93.000000, 2.000000,3.000000,1.000000,6.000000,0.500000,1.000000
51, test, 8, probe, 24, 3, 4, 4, 3, 0.6, 0.7, right, 2, 0.3, 0.4, 0.6, 0.7, 1.2454004001338035, 1, 64.4298095703125, 1.8999723999295384, 8.000000, 94.000000, 3.000000,3.000000,1.000000,6.000000,0.500000,1.000000
51, test, 8, no_probe, 25, 3, 1, 3, 1, 0.6, 0.3, left, 1, 0.3, 0.4, 0.6, 0.7, 0.9927987998817116, 1, , , 9.000000, 95.000000, 1.000000,2.000000,1.000000,6.000000,0.500000,1.000000
