subject, block_type, block, thought probe, trial, chosen, unchosen, offer_left_image, offer_right_image, exp_value_chosen, exp_value_unchosen, choice_location, choice_key, exp_value1, exp_value2, exp_value3, exp_value4, RT, reward, vas, RT_vas, coins_per_block, coins_per_task, count_to_prob, ntrial_to_prob, ITI_duration,RT_deadline,choice_feedback_duration,outcome_duration
2, test, 1, no_probe, 1, 1, 2, 2, 1, 0.3, 0.4, right, 2, 0.3, 0.4, 0.6, 0.7, 1.1995716000092216, 0, , , 0.000000, 0.000000, 1.000000,2.000000,1.000000,6.000000,0.500000,1.000000
2, test, 1, probe, 2, 3, 1, 1, 3, 0.6, 0.3, right, 2, 0.3, 0.4, 0.6, 0.7, 1.2391669999924488, 0, 99.99853515625, 4.599882300011814, 0.000000, 0.000000, 2.000000,2.000000,1.000000,6.000000,0.500000,1.000000
2, test, 1, no_probe, 3, 4, 2, 2, 4, 0.7, 0.4, right, 2, 0.3, 0.4, 0.6, 0.7, 1.3618768999585882, 1, , , 1.000000, 1.000000, 1.000000,2.000000,1.000000,6.000000,0.500000,1.000000
2, test, 1, probe, 4, 4, 2, 2, 4, 0.7, 0.4, right, 2, 0.3, 0.4, 0.6, 0.7, 0.8241291000158526, 1, 99.99874877929688, 2.883288100012578, 2.000000, 2.000000, 2.000000,2.000000,1.000000,6.000000,0.500000,1.000000
2, test, 1, no_probe, 5, 3, 1, 3, 1, 0.6, 0.3, left, 1, 0.3, 0.4, 0.6, 0.7, 1.5966168000013568, 0, , , 2.000000, 2.000000, 1.000000,3.000000,1.000000,6.000000,0.500000,1.000000
2, test, 1, no_probe, 6, 2, 3, 2, 3, 0.4, 0.6, left, 1, 0.3, 0.4, 0.6, 0.7, 1.2416735999868251, 0, , , 2.000000, 2.000000, 2.000000,3.000000,1.000000,6.000000,0.500000,1.000000
2, test, 1, no_probe, 1, 3, 2, 2, 3, 0.6, 0.4, right, 2, 0.3, 0.4, 0.6, 0.7, 0.7611394000123255, 0, , , 0.000000, 2.000000, 1.000000,3.000000,1.000000,6.000000,0.500000,1.000000
2, test, 1, no_probe, 2, 2, 3, 2, 3, 0.4, 0.6, left, 1, 0.3, 0.4, 0.6, 0.7, 0.6047497999970801, 1, , , 1.000000, 3.000000, 2.000000,3.000000,1.000000,6.000000,0.500000,1.000000
2, test, 1, probe, 3, 4, 3, 3, 4, 0.7, 0.6, right, 2, 0.3, 0.4, 0.6, 0.7, 1.2577031000400893, 0, 99.99920654296875, 2.249567000020761, 1.000000, 3.000000, 3.000000,3.000000,1.000000,6.000000,0.500000,1.000000
2, test, 1, no_probe, 4, 2, 1, 1, 2, 0.4, 0.3, right, 2, 0.3, 0.4, 0.6, 0.7, 2.548977400001604, 1, , , 2.000000, 4.000000, 1.000000,3.000000,1.000000,6.000000,0.500000,1.000000
2, test, 1, no_probe, 5, 4, 3, 4, 3, 0.7, 0.6, left, 1, 0.3, 0.4, 0.6, 0.7, 1.509389500017278, 1, , , 3.000000, 5.000000, 2.000000,3.000000,1.000000,6.000000,0.500000,1.000000
2, test, 1, probe, 6, 2, 3, 2, 3, 0.4, 0.6, left, 1, 0.3, 0.4, 0.6, 0.7, 1.7258320999681018, 0, 100, 2.8833123999647796, 3.000000, 5.000000, 3.000000,3.000000,1.000000,6.000000,0.500000,1.000000
2, test, 1, no_probe, 7, 4, 1, 4, 1, 0.7, 0.3, left, 1, 0.3, 0.4, 0.6, 0.7, 1.2794329999596812, 1, , , 4.000000, 6.000000, 1.000000,2.000000,1.000000,6.000000,0.500000,1.000000
2, test, 1, probe, 8, 3, 1, 3, 1, 0.6, 0.3, left, 1, 0.3, 0.4, 0.6, 0.7, 2.321243999991566, 0, 93.65948486328125, 3.483277800027281, 4.000000, 6.000000, 2.000000,2.000000,1.000000,6.000000,0.500000,1.000000
2, test, 1, no_probe, 9, 2, 4, 4, 2, 0.4, 0.7, right, 2, 0.3, 0.4, 0.6, 0.7, 2.2375783000024967, 1, , , 5.000000, 7.000000, 1.000000,3.000000,1.000000,6.000000,0.500000,1.000000
2, test, 1, no_probe, 10, 2, 3, 2, 3, 0.4, 0.6, left, 1, 0.3, 0.4, 0.6, 0.7, 1.8963777999742888, 0, , , 5.000000, 7.000000, 2.000000,3.000000,1.000000,6.000000,0.500000,1.000000
2, test, 1, probe, 11, 2, 1, 2, 1, 0.4, 0.3, left, 1, 0.3, 0.4, 0.6, 0.7, 1.0696656000218354, 0, 93.75247192382812, 2.9166525999899022, 5.000000, 7.000000, 3.000000,3.000000,1.000000,6.000000,0.500000,1.000000
2, test, 1, no_probe, 12, 1, 2, 2, 1, 0.3, 0.4, right, 2, 0.3, 0.4, 0.6, 0.7, 1.871227799972985, 1, , , 6.000000, 8.000000, 1.000000,2.000000,1.000000,6.000000,0.500000,1.000000
2, test, 1, probe, 13, 2, 3, 2, 3, 0.4, 0.6, left, 1, 0.3, 0.4, 0.6, 0.7, 1.796824499964714, 0, 92.73367309570312, 1.6833020999911241, 6.000000, 8.000000, 2.000000,2.000000,1.000000,6.000000,0.500000,1.000000
2, test, 1, no_probe, 14, 4, 3, 3, 4, 0.7, 0.6, right, 2, 0.3, 0.4, 0.6, 0.7, 2.2502459000097588, 1, , , 7.000000, 9.000000, 1.000000,3.000000,1.000000,6.000000,0.500000,1.000000
2, test, 1, no_probe, 15, 4, 3, 3, 4, 0.7, 0.6, right, 2, 0.3, 0.4, 0.6, 0.7, 0.9023778000264429, 0, , , 7.000000, 9.000000, 2.000000,3.000000,1.000000,6.000000,0.500000,1.000000
2, test, 1, probe, 16, 2, 1, 1, 2, 0.4, 0.3, right, 2, 0.3, 0.4, 0.6, 0.7, 3.7600085000158288, 0, 95.98880004882812, 2.316633000038564, 7.000000, 9.000000, 3.000000,3.000000,1.000000,6.000000,0.500000,1.000000
2, test, 1, no_probe, 17, 4, 2, 4, 2, 0.7, 0.4, left, 1, 0.3, 0.4, 0.6, 0.7, 4.21202269999776, 1, , , 8.000000, 10.000000, 1.000000,3.000000,1.000000,6.000000,0.500000,1.000000
2, test, 1, no_probe, 18, 4, 1, 1, 4, 0.7, 0.3, right, 2, 0.3, 0.4, 0.6, 0.7, 1.3333036999683827, 1, , , 9.000000, 11.000000, 2.000000,3.000000,1.000000,6.000000,0.500000,1.000000
2, test, 1, probe, 19, 2, 1, 2, 1, 0.4, 0.3, left, 1, 0.3, 0.4, 0.6, 0.7, 1.385173799993936, 0, 99.99923706054688, 2.5833004000014625, 9.000000, 11.000000, 3.000000,3.000000,1.000000,6.000000,0.500000,1.000000
2, test, 1, no_probe, 20, 2, 3, 3, 2, 0.4, 0.6, right, 2, 0.3, 0.4, 0.6, 0.7, 2.7881722999736667, 0, , , 9.000000, 11.000000, 1.000000,3.000000,1.000000,6.000000,0.500000,1.000000
2, test, 1, no_probe, 21, 3, 1, 3, 1, 0.6, 0.3, left, 1, 0.3, 0.4, 0.6, 0.7, 2.080875299987383, 1, , , 10.000000, 12.000000, 2.000000,3.000000,1.000000,6.000000,0.500000,1.000000
2, test, 1, probe, 22, 4, 3, 3, 4, 0.7, 0.6, right, 2, 0.3, 0.4, 0.6, 0.7, 1.888050400011707, 0, 99.99960327148438, 1.8499999000341631, 10.000000, 12.000000, 3.000000,3.000000,1.000000,6.000000,0.500000,1.000000
2, test, 1, no_probe, 23, 1, 2, 1, 2, 0.3, 0.4, left, 1, 0.3, 0.4, 0.6, 0.7, 3.0029362000059336, 0, , , 10.000000, 12.000000, 1.000000,2.000000,1.000000,6.000000,0.500000,1.000000
2, test, 1, probe, 24, 4, 3, 3, 4, 0.7, 0.6, right, 2, 0.3, 0.4, 0.6, 0.7, 1.7035037000314333, 1, 81.55184936523438, 2.233279899985064, 11.000000, 13.000000, 2.000000,2.000000,1.000000,6.000000,0.500000,1.000000
2, test, 1, abort_trial, 25
2, test, 2, no_probe, 1, 3, 4, 4, 3, 0.6, 0.7, right, 2, 0.3, 0.4, 0.6, 0.7, 1.180429300002288, 1, , , 1.000000, 14.000000, 1.000000,2.000000,1.000000,6.000000,0.500000,1.000000
2, test, 2, probe, 2, 3, 2, 2, 3, 0.6, 0.4, right, 2, 0.3, 0.4, 0.6, 0.7, 0.8100747999851592, 1, 99.99929809570312, 2.19995859998744, 2.000000, 15.000000, 2.000000,2.000000,1.000000,6.000000,0.500000,1.000000
2, test, 2, no_probe, 3, 2, 1, 1, 2, 0.4, 0.3, right, 2, 0.3, 0.4, 0.6, 0.7, 1.9612100000376813, 0, , , 2.000000, 15.000000, 1.000000,2.000000,1.000000,6.000000,0.500000,1.000000
2, test, 2, probe, 4, 1, 2, 2, 1, 0.3, 0.4, right, 2, 0.3, 0.4, 0.6, 0.7, 2.072017099999357, 1, 91.163330078125, 3.0832690999959596, 3.000000, 16.000000, 2.000000,2.000000,1.000000,6.000000,0.500000,1.000000
2, test, 2, no_probe, 5, 1, 4, 4, 1, 0.3, 0.7, right, 2, 0.3, 0.4, 0.6, 0.7, 3.246983500022907, 0, , , 3.000000, 16.000000, 1.000000,2.000000,1.000000,6.000000,0.500000,1.000000
2, test, 2, probe, 6, 1, 2, 2, 1, 0.3, 0.4, right, 2, 0.3, 0.4, 0.6, 0.7, 1.6781682999571785, 0, 89.96725463867188, 2.499960499990266, 3.000000, 16.000000, 2.000000,2.000000,1.000000,6.000000,0.500000,1.000000
2, test, 2, no_probe, 7, 1, 4, 4, 1, 0.3, 0.7, right, 2, 0.3, 0.4, 0.6, 0.7, 3.2518625000375323, 1, , , 4.000000, 17.000000, 1.000000,2.000000,1.000000,6.000000,0.500000,1.000000
2, test, 2, probe, 8, 1, 4, 4, 1, 0.3, 0.7, right, 2, 0.3, 0.4, 0.6, 0.7, 2.297413000022061, 0, 93.73727416992188, 2.3333276999765076, 4.000000, 17.000000, 2.000000,2.000000,1.000000,6.000000,0.500000,1.000000
2, test, 2, no_probe, 9, 3, 1, 3, 1, 0.6, 0.3, left, 1, 0.3, 0.4, 0.6, 0.7, 1.7701611999655142, 0, , , 4.000000, 17.000000, 1.000000,3.000000,1.000000,6.000000,0.500000,1.000000
2, test, 2, no_probe, 10, 3, 1, 3, 1, 0.6, 0.3, left, 1, 0.3, 0.4, 0.6, 0.7, 0.6037654000101611, 1, , , 5.000000, 18.000000, 2.000000,3.000000,1.000000,6.000000,0.500000,1.000000
2, test, 2, probe, 11, 3, 1, 3, 1, 0.6, 0.3, left, 1, 0.3, 0.4, 0.6, 0.7, 0.8012375999824144, 0, 98.59707641601562, 2.249974599981215, 5.000000, 18.000000, 3.000000,3.000000,1.000000,6.000000,0.500000,1.000000
2, test, 2, no_probe, 12, 3, 1, 3, 1, 0.6, 0.3, left, 1, 0.3, 0.4, 0.6, 0.7, 0.8626127000316046, 0, , , 5.000000, 18.000000, 1.000000,2.000000,1.000000,6.000000,0.500000,1.000000
2, test, 2, probe, 13, 1, 3, 3, 1, 0.3, 0.6, right, 2, 0.3, 0.4, 0.6, 0.7, 1.470988799992483, 1, 79.8594970703125, 3.7832869000267237, 6.000000, 19.000000, 2.000000,2.000000,1.000000,6.000000,0.500000,1.000000
2, test, 2, no_probe, 14, 4, 3, 4, 3, 0.7, 0.6, left, 1, 0.3, 0.4, 0.6, 0.7, 2.6885959999635816, 1, , , 7.000000, 20.000000, 1.000000,3.000000,1.000000,6.000000,0.500000,1.000000
2, test, 2, no_probe, 15, 1, 3, 3, 1, 0.3, 0.6, right, 2, 0.3, 0.4, 0.6, 0.7, 0.9933974000159651, 0, , , 7.000000, 20.000000, 2.000000,3.000000,1.000000,6.000000,0.500000,1.000000
2, test, 2, probe, 16, 4, 1, 1, 4, 0.7, 0.3, right, 2, 0.3, 0.4, 0.6, 0.7, 3.831622200028505, 1, 72.85983276367188, 2.4832530000130646, 8.000000, 21.000000, 3.000000,3.000000,1.000000,6.000000,0.500000,1.000000
2, test, 2, no_probe, 17, 2, 3, 3, 2, 0.4, 0.6, right, 2, 0.3, 0.4, 0.6, 0.7, 2.132539799960796, 0, , , 8.000000, 21.000000, 1.000000,2.000000,1.000000,6.000000,0.500000,1.000000
2, test, 2, probe, 18, 1, 3, 1, 3, 0.3, 0.6, left, 1, 0.3, 0.4, 0.6, 0.7, 1.499161700019613, 0, 68.3458251953125, 2.533338500012178, 8.000000, 21.000000, 2.000000,2.000000,1.000000,6.000000,0.500000,1.000000
2, test, 2, no_probe, 19, 2, 1, 1, 2, 0.4, 0.3, right, 2, 0.3, 0.4, 0.6, 0.7, 2.302966399991419, 0, , , 8.000000, 21.000000, 1.000000,2.000000,1.000000,6.000000,0.500000,1.000000
2, test, 2, probe, 20, 1, 4, 1, 4, 0.3, 0.7, left, 1, 0.3, 0.4, 0.6, 0.7, 2.387966200010851, 1, 76.08120727539062, 2.249921699985862, 9.000000, 22.000000, 2.000000,2.000000,1.000000,6.000000,0.500000,1.000000
2, test, 2, no_probe, 21, 3, 1, 3, 1, 0.6, 0.3, left, 1, 0.3, 0.4, 0.6, 0.7, 3.383424300001934, 1, , , 10.000000, 23.000000, 1.000000,3.000000,1.000000,6.000000,0.500000,1.000000
2, test, 2, no_probe, 22, 2, 1, 1, 2, 0.4, 0.3, right, 2, 0.3, 0.4, 0.6, 0.7, 1.6322312999982387, 0, , , 10.000000, 23.000000, 2.000000,3.000000,1.000000,6.000000,0.500000,1.000000
2, test, 2, probe, 23, 4, 2, 2, 4, 0.7, 0.4, right, 2, 0.3, 0.4, 0.6, 0.7, 1.8852301999577321, 0, 72.66903686523438, 1.9332990000257269, 10.000000, 23.000000, 3.000000,3.000000,1.000000,6.000000,0.500000,1.000000
2, test, 2, no_probe, 24, 4, 1, 1, 4, 0.7, 0.3, right, 2, 0.3, 0.4, 0.6, 0.7, 4.639602099952754, 1, , , 11.000000, 24.000000, 1.000000,3.000000,1.000000,6.000000,0.500000,1.000000
2, test, 2, no_probe, 25, 4, 3, 4, 3, 0.7, 0.6, left, 1, 0.3, 0.4, 0.6, 0.7, 1.721195499994792, 0, , , 11.000000, 24.000000, 2.000000,3.000000,1.000000,6.000000,0.500000,1.000000
2, test, 3, no_probe, 1, 2, 3, 3, 2, 0.4, 0.6, right, 2, 0.3, 0.4, 0.6, 0.7, 0.42263810004806146, 0, , , 0.000000, 24.000000, 1.000000,2.000000,1.000000,6.000000,0.500000,1.000000
2, test, 3, probe, 2, 1, 2, 1, 2, 0.3, 0.4, left, 1, 0.3, 0.4, 0.6, 0.7, 1.2191826000344008, 0, 95.66351318359375, 2.0666166999726556, 0.000000, 24.000000, 2.000000,2.000000,1.000000,6.000000,0.500000,1.000000
2, test, 3, no_probe, 3, 3, 2, 3, 2, 0.6, 0.4, left, 1, 0.3, 0.4, 0.6, 0.7, 1.7446394999860786, 1, , , 1.000000, 25.000000, 1.000000,2.000000,1.000000,6.000000,0.500000,1.000000
2, test, 3, probe, 4, 2, 4, 2, 4, 0.4, 0.7, left, 1, 0.3, 0.4, 0.6, 0.7, 2.678211899998132, 0, 99.99948120117188, 2.2499466000008397, 1.000000, 25.000000, 2.000000,2.000000,1.000000,6.000000,0.500000,1.000000
2, test, 3, no_probe, 5, 2, 1, 2, 1, 0.4, 0.3, left, 1, 0.3, 0.4, 0.6, 0.7, 1.8903435000102036, 1, , , 2.000000, 26.000000, 1.000000,2.000000,1.000000,6.000000,0.500000,1.000000
2, test, 3, probe, 6, 2, 1, 1, 2, 0.4, 0.3, right, 2, 0.3, 0.4, 0.6, 0.7, 1.2686776999616995, 0, 96.20721435546875, 2.566620800003875, 2.000000, 26.000000, 2.000000,2.000000,1.000000,6.000000,0.500000,1.000000
2, test, 3, no_probe, 7, 4, 3, 4, 3, 0.7, 0.6, left, 1, 0.3, 0.4, 0.6, 0.7, 2.3191018999787048, 1, , , 3.000000, 27.000000, 1.000000,3.000000,1.000000,6.000000,0.500000,1.000000
2, test, 3, no_probe, 8, 4, 1, 4, 1, 0.7, 0.3, left, 1, 0.3, 0.4, 0.6, 0.7, 0.8477694999892265, 1, , , 4.000000, 28.000000, 2.000000,3.000000,1.000000,6.000000,0.500000,1.000000
2, test, 3, probe, 9, 4, 2, 2, 4, 0.7, 0.4, right, 2, 0.3, 0.4, 0.6, 0.7, 1.5027149000088684, 1, 99.99960327148438, 1.7999743999680504, 5.000000, 29.000000, 3.000000,3.000000,1.000000,6.000000,0.500000,1.000000
2, test, 3, no_probe, 10, 3, 2, 3, 2, 0.6, 0.4, left, 1, 0.3, 0.4, 0.6, 0.7, 1.3102860000217333, 0, , , 5.000000, 29.000000, 1.000000,3.000000,1.000000,6.000000,0.500000,1.000000
2, test, 3, no_probe, 11, 4, 3, 4, 3, 0.7, 0.6, left, 1, 0.3, 0.4, 0.6, 0.7, 1.8325636999798007, 0, , , 5.000000, 29.000000, 2.000000,3.000000,1.000000,6.000000,0.500000,1.000000
2, test, 3, probe, 12, 2, 1, 2, 1, 0.4, 0.3, left, 1, 0.3, 0.4, 0.6, 0.7, 1.768206500040833, 0, 93.43612670898438, 2.883353100041859, 5.000000, 29.000000, 3.000000,3.000000,1.000000,6.000000,0.500000,1.000000
2, test, 3, no_probe, 13, 4, 3, 3, 4, 0.7, 0.6, right, 2, 0.3, 0.4, 0.6, 0.7, 2.8219286000239663, 0, , , 5.000000, 29.000000, 1.000000,3.000000,1.000000,6.000000,0.500000,1.000000
2, test, 3, no_probe, 14, 4, 1, 1, 4, 0.7, 0.3, right, 2, 0.3, 0.4, 0.6, 0.7, 1.7865083999931812, 1, , , 6.000000, 30.000000, 2.000000,3.000000,1.000000,6.000000,0.500000,1.000000
2, test, 3, probe, 15, 3, 1, 1, 3, 0.6, 0.3, right, 2, 0.3, 0.4, 0.6, 0.7, 3.5165169999818318, 1, 97.755615234375, 3.366604099981487, 7.000000, 31.000000, 3.000000,3.000000,1.000000,6.000000,0.500000,1.000000
2, test, 3, no_probe, 16, 4, 2, 2, 4, 0.7, 0.4, right, 2, 0.3, 0.4, 0.6, 0.7, 1.6625869999988936, 1, , , 8.000000, 32.000000, 1.000000,2.000000,1.000000,6.000000,0.500000,1.000000
2, test, 3, probe, 17, 4, 3, 3, 4, 0.7, 0.6, right, 2, 0.3, 0.4, 0.6, 0.7, 1.560332000022754, 0, 95.0535888671875, 2.3666327000246383, 8.000000, 32.000000, 2.000000,2.000000,1.000000,6.000000,0.500000,1.000000
2, test, 3, no_probe, 18, 3, 2, 2, 3, 0.6, 0.4, right, 2, 0.3, 0.4, 0.6, 0.7, 1.980054299987387, 1, , , 9.000000, 33.000000, 1.000000,3.000000,1.000000,6.000000,0.500000,1.000000
2, test, 3, no_probe, 19, 4, 3, 4, 3, 0.7, 0.6, left, 1, 0.3, 0.4, 0.6, 0.7, 1.3051550000091083, 1, , , 10.000000, 34.000000, 2.000000,3.000000,1.000000,6.000000,0.500000,1.000000
2, test, 3, probe, 20, 4, 3, 4, 3, 0.7, 0.6, left, 1, 0.3, 0.4, 0.6, 0.7, 1.1600226000300609, 1, 99.241943359375, 1.933313699963037, 11.000000, 35.000000, 3.000000,3.000000,1.000000,6.000000,0.500000,1.000000
2, test, 3, no_probe, 21, 4, 3, 3, 4, 0.7, 0.6, right, 2, 0.3, 0.4, 0.6, 0.7, 1.7842704000067897, 1, , , 12.000000, 36.000000, 1.000000,3.000000,1.000000,6.000000,0.500000,1.000000
2, test, 3, no_probe, 22, 4, 3, 3, 4, 0.7, 0.6, right, 2, 0.3, 0.4, 0.6, 0.7, 0.597268300014548, 1, , , 13.000000, 37.000000, 2.000000,3.000000,1.000000,6.000000,0.500000,1.000000
2, test, 3, probe, 23, 3, 2, 3, 2, 0.6, 0.4, left, 1, 0.3, 0.4, 0.6, 0.7, 2.228337200009264, 0, 96.39065551757812, 2.283345600008033, 13.000000, 37.000000, 3.000000,3.000000,1.000000,6.000000,0.500000,1.000000
2, test, 3, no_probe, 24, 4, 1, 4, 1, 0.7, 0.3, left, 1, 0.3, 0.4, 0.6, 0.7, 1.0198316000169143, 0, , , 13.000000, 37.000000, 1.000000,3.000000,1.000000,6.000000,0.500000,1.000000
2, test, 3, no_probe, 25, 3, 1, 1, 3, 0.6, 0.3, right, 2, 0.3, 0.4, 0.6, 0.7, 1.8833080000476912, 1, , , 14.000000, 38.000000, 2.000000,3.000000,1.000000,6.000000,0.500000,1.000000
2, test, 4, no_probe, 1, 3, 4, 4, 3, 0.6, 0.7, right, 2, 0.3, 0.4, 0.6, 0.7, 0.9966754000051878, 1, , , 1.000000, 39.000000, 1.000000,2.000000,1.000000,6.000000,0.500000,1.000000
2, test, 4, probe, 2, 1, 4, 1, 4, 0.3, 0.7, left, 1, 0.3, 0.4, 0.6, 0.7, 2.5092317000380717, 0, 86.96945190429688, 2.3833038000157103, 1.000000, 39.000000, 2.000000,2.000000,1.000000,6.000000,0.500000,1.000000
2, test, 4, no_probe, 3, 3, 4, 3, 4, 0.6, 0.7, left, 1, 0.3, 0.4, 0.6, 0.7, 1.2583601000369526, 0, , , 1.000000, 39.000000, 1.000000,2.000000,1.000000,6.000000,0.500000,1.000000
2, test, 4, probe, 4, 4, 1, 1, 4, 0.7, 0.3, right, 2, 0.3, 0.4, 0.6, 0.7, 0.5789111999911256, 1, 92.82394409179688, 1.5166240999824367, 2.000000, 40.000000, 2.000000,2.000000,1.000000,6.000000,0.500000,1.000000
2, test, 4, no_probe, 5, 4, 1, 4, 1, 0.7, 0.3, left, 1, 0.3, 0.4, 0.6, 0.7, 0.9468294999678619, 1, , , 3.000000, 41.000000, 1.000000,3.000000,1.000000,6.000000,0.500000,1.000000
2, test, 4, no_probe, 6, 4, 3, 3, 4, 0.7, 0.6, right, 2, 0.3, 0.4, 0.6, 0.7, 1.4582700999453664, 0, , , 3.000000, 41.000000, 2.000000,3.000000,1.000000,6.000000,0.500000,1.000000
2, test, 4, probe, 7, 3, 1, 1, 3, 0.6, 0.3, right, 2, 0.3, 0.4, 0.6, 0.7, 1.905176099971868, 0, 93.133544921875, 2.0499750000308268, 3.000000, 41.000000, 3.000000,3.000000,1.000000,6.000000,0.500000,1.000000
2, test, 4, no_probe, 8, 4, 1, 4, 1, 0.7, 0.3, left, 1, 0.3, 0.4, 0.6, 0.7, 1.1317646999959834, 1, , , 4.000000, 42.000000, 1.000000,3.000000,1.000000,6.000000,0.500000,1.000000
2, test, 4, no_probe, 9, 4, 2, 4, 2, 0.7, 0.4, left, 1, 0.3, 0.4, 0.6, 0.7, 1.3996678999974392, 1, , , 5.000000, 43.000000, 2.000000,3.000000,1.000000,6.000000,0.500000,1.000000
2, test, 4, probe, 10, 4, 1, 1, 4, 0.7, 0.3, right, 2, 0.3, 0.4, 0.6, 0.7, 1.3573342000017874, 1, 99.94357299804688, 2.349970299983397, 6.000000, 44.000000, 3.000000,3.000000,1.000000,6.000000,0.500000,1.000000
2, test, 4, no_probe, 11, 4, 3, 4, 3, 0.7, 0.6, left, 1, 0.3, 0.4, 0.6, 0.7, 0.9291252000257373, 1, , , 7.000000, 45.000000, 1.000000,3.000000,1.000000,6.000000,0.500000,1.000000
2, test, 4, no_probe, 12, 4, 3, 4, 3, 0.7, 0.6, left, 1, 0.3, 0.4, 0.6, 0.7, 0.828205700032413, 1, , , 8.000000, 46.000000, 2.000000,3.000000,1.000000,6.000000,0.500000,1.000000
2, test, 4, probe, 13, 4, 2, 4, 2, 0.7, 0.4, left, 1, 0.3, 0.4, 0.6, 0.7, 0.6247982999775559, 1, 97.28140258789062, 1.6499509999994189, 9.000000, 47.000000, 3.000000,3.000000,1.000000,6.000000,0.500000,1.000000
2, test, 4, no_probe, 14, 4, 2, 2, 4, 0.7, 0.4, right, 2, 0.3, 0.4, 0.6, 0.7, 0.7575114999781363, 1, , , 10.000000, 48.000000, 1.000000,2.000000,1.000000,6.000000,0.500000,1.000000
2, test, 4, probe, 15, 4, 2, 2, 4, 0.7, 0.4, right, 2, 0.3, 0.4, 0.6, 0.7, 0.4739364999695681, 0, 98.03872680664062, 1.6999551000189967, 10.000000, 48.000000, 2.000000,2.000000,1.000000,6.000000,0.500000,1.000000
2, test, 4, no_probe, 16, 4, 1, 4, 1, 0.7, 0.3, left, 1, 0.3, 0.4, 0.6, 0.7, 0.7023880000342615, 0, , , 10.000000, 48.000000, 1.000000,3.000000,1.000000,6.000000,0.500000,1.000000
2, test, 4, no_probe, 17, 4, 2, 4, 2, 0.7, 0.4, left, 1, 0.3, 0.4, 0.6, 0.7, 1.0677552000270225, 1, , , 11.000000, 49.000000, 2.000000,3.000000,1.000000,6.000000,0.500000,1.000000
2, test, 4, probe, 18, 3, 2, 2, 3, 0.6, 0.4, right, 2, 0.3, 0.4, 0.6, 0.7, 1.910334799962584, 0, 97.00686645507812, 3.0999870999949053, 11.000000, 49.000000, 3.000000,3.000000,1.000000,6.000000,0.500000,1.000000
2, test, 4, no_probe, 19, 4, 2, 2, 4, 0.7, 0.4, right, 2, 0.3, 0.4, 0.6, 0.7, 1.0384445000090636, 1, , , 12.000000, 50.000000, 1.000000,3.000000,1.000000,6.000000,0.500000,1.000000
2, test, 4, no_probe, 20, 2, 1, 2, 1, 0.4, 0.3, left, 1, 0.3, 0.4, 0.6, 0.7, 0.6946184999542311, 0, , , 12.000000, 50.000000, 2.000000,3.000000,1.000000,6.000000,0.500000,1.000000
2, test, 4, probe, 21, 2, 3, 3, 2, 0.4, 0.6, right, 2, 0.3, 0.4, 0.6, 0.7, 4.07693839998683, 0, 89.00772094726562, 2.43333359999815, 12.000000, 50.000000, 3.000000,3.000000,1.000000,6.000000,0.500000,1.000000
2, test, 4, no_probe, 22, 1, 3, 1, 3, 0.3, 0.6, left, 1, 0.3, 0.4, 0.6, 0.7, 3.9934390999842435, 1, , , 13.000000, 51.000000, 1.000000,3.000000,1.000000,6.000000,0.500000,1.000000
2, test, 4, no_probe, 23, 4, 3, 3, 4, 0.7, 0.6, right, 2, 0.3, 0.4, 0.6, 0.7, 1.231364700011909, 1, , , 14.000000, 52.000000, 2.000000,3.000000,1.000000,6.000000,0.500000,1.000000
2, test, 4, probe, 24, 4, 3, 3, 4, 0.7, 0.6, right, 2, 0.3, 0.4, 0.6, 0.7, 0.8156224000267684, 1, 96.36865234375, 1.8333218999905512, 15.000000, 53.000000, 3.000000,3.000000,1.000000,6.000000,0.500000,1.000000
2, test, 4, no_probe, 25, 4, 1, 1, 4, 0.7, 0.3, right, 2, 0.3, 0.4, 0.6, 0.7, 1.053234099992551, 1, , , 16.000000, 54.000000, 1.000000,3.000000,1.000000,6.000000,0.500000,1.000000
2, test, 5, no_probe, 1, 4, 1, 1, 4, 0.7, 0.3, right, 2, 0.3, 0.4, 0.6, 0.7, 0.6398739000433125, 0, , , 0.000000, 54.000000, 1.000000,2.000000,1.000000,6.000000,0.500000,1.000000
2, test, 5, probe, 2, 1, 4, 1, 4, 0.3, 0.7, left, 1, 0.3, 0.4, 0.6, 0.7, 0.8207998999860138, 1, 99.99969482421875, 1.816634899994824, 1.000000, 55.000000, 2.000000,2.000000,1.000000,6.000000,0.500000,1.000000
2, test, 5, no_probe, 3, 1, 2, 1, 2, 0.3, 0.4, left, 1, 0.3, 0.4, 0.6, 0.7, 0.702805700013414, 0, , , 1.000000, 55.000000, 1.000000,3.000000,1.000000,6.000000,0.500000,1.000000
2, test, 5, no_probe, 4, 2, 3, 3, 2, 0.4, 0.6, right, 2, 0.3, 0.4, 0.6, 0.7, 0.8881580000161193, 1, , , 2.000000, 56.000000, 2.000000,3.000000,1.000000,6.000000,0.500000,1.000000
2, test, 5, probe, 5, 2, 4, 2, 4, 0.4, 0.7, left, 1, 0.3, 0.4, 0.6, 0.7, 0.9620867999619804, 0, 99.76699829101562, 2.4333154000341892, 2.000000, 56.000000, 3.000000,3.000000,1.000000,6.000000,0.500000,1.000000
2, test, 5, no_probe, 6, 2, 4, 2, 4, 0.4, 0.7, left, 1, 0.3, 0.4, 0.6, 0.7, 1.039141400018707, 0, , , 2.000000, 56.000000, 1.000000,3.000000,1.000000,6.000000,0.500000,1.000000
2, test, 5, no_probe, 7, 4, 1, 1, 4, 0.7, 0.3, right, 2, 0.3, 0.4, 0.6, 0.7, 1.3385749000008218, 0, , , 2.000000, 56.000000, 2.000000,3.000000,1.000000,6.000000,0.500000,1.000000
2, test, 5, probe, 8, 1, 3, 3, 1, 0.3, 0.6, right, 2, 0.3, 0.4, 0.6, 0.7, 1.7876538999844342, 1, 92.43185424804688, 2.2333160000271164, 3.000000, 57.000000, 3.000000,3.000000,1.000000,6.000000,0.500000,1.000000
2, test, 5, no_probe, 9, 4, 3, 3, 4, 0.7, 0.6, right, 2, 0.3, 0.4, 0.6, 0.7, 3.2952939000097103, 0, , , 3.000000, 57.000000, 1.000000,2.000000,1.000000,6.000000,0.500000,1.000000
2, test, 5, probe, 10, 2, 4, 2, 4, 0.4, 0.7, left, 1, 0.3, 0.4, 0.6, 0.7, 1.578901200031396, 0, 73.33868408203125, 1.8165876000421122, 3.000000, 57.000000, 2.000000,2.000000,1.000000,6.000000,0.500000,1.000000
2, test, 5, no_probe, 11, 1, 2, 2, 1, 0.3, 0.4, right, 2, 0.3, 0.4, 0.6, 0.7, 1.2632279000245035, 0, , , 3.000000, 57.000000, 1.000000,2.000000,1.000000,6.000000,0.500000,1.000000
2, test, 5, probe, 12, 1, 4, 4, 1, 0.3, 0.7, right, 2, 0.3, 0.4, 0.6, 0.7, 0.9992783000343479, 0, 79.00543212890625, 2.049933600006625, 3.000000, 57.000000, 2.000000,2.000000,1.000000,6.000000,0.500000,1.000000
2, test, 5, no_probe, 13, 4, 3, 4, 3, 0.7, 0.6, left, 1, 0.3, 0.4, 0.6, 0.7, 0.9853657000348903, 1, , , 4.000000, 58.000000, 1.000000,3.000000,1.000000,6.000000,0.500000,1.000000
2, test, 5, no_probe, 14, 4, 1, 1, 4, 0.7, 0.3, right, 2, 0.3, 0.4, 0.6, 0.7, 0.7748421999858692, 1, , , 5.000000, 59.000000, 2.000000,3.000000,1.000000,6.000000,0.500000,1.000000
2, test, 5, probe, 15, 2, 3, 3, 2, 0.4, 0.6, right, 2, 0.3, 0.4, 0.6, 0.7, 1.8409626999637112, 1, 94.3897705078125, 1.6166299000033177, 6.000000, 60.000000, 3.000000,3.000000,1.000000,6.000000,0.500000,1.000000
2, test, 5, no_probe, 16, 2, 3, 2, 3, 0.4, 0.6, left, 1, 0.3, 0.4, 0.6, 0.7, 1.2195713999681175, 1, , , 7.000000, 61.000000, 1.000000,2.000000,1.000000,6.000000,0.500000,1.000000
2, test, 5, probe, 17, 2, 1, 1, 2, 0.4, 0.3, right, 2, 0.3, 0.4, 0.6, 0.7, 1.4475300000049174, 0, 95.31118774414062, 3.216648300003726, 7.000000, 61.000000, 2.000000,2.000000,1.000000,6.000000,0.500000,1.000000
2, test, 5, no_probe, 18, 2, 3, 2, 3, 0.4, 0.6, left, 1, 0.3, 0.4, 0.6, 0.7, 1.3697860999964178, 1, , , 8.000000, 62.000000, 1.000000,2.000000,1.000000,6.000000,0.500000,1.000000
2, test, 5, probe, 19, 2, 3, 2, 3, 0.4, 0.6, left, 1, 0.3, 0.4, 0.6, 0.7, 0.7796760000055656, 1, 99.99978637695312, 1.7332793999812566, 9.000000, 63.000000, 2.000000,2.000000,1.000000,6.000000,0.500000,1.000000
2, test, 5, no_probe, 20, 4, 1, 1, 4, 0.7, 0.3, right, 2, 0.3, 0.4, 0.6, 0.7, 1.5647526000393555, 1, , , 10.000000, 64.000000, 1.000000,2.000000,1.000000,6.000000,0.500000,1.000000
2, test, 5, probe, 21, 4, 1, 4, 1, 0.7, 0.3, left, 1, 0.3, 0.4, 0.6, 0.7, 1.850434900028631, 1, 98.34210205078125, 1.6333388999919407, 11.000000, 65.000000, 2.000000,2.000000,1.000000,6.000000,0.500000,1.000000
2, test, 5, no_probe, 22, 1, 2, 1, 2, 0.3, 0.4, left, 1, 0.3, 0.4, 0.6, 0.7, 2.8158335000043735, 0, , , 11.000000, 65.000000, 1.000000,2.000000,1.000000,6.000000,0.500000,1.000000
2, test, 5, probe, 23, 4, 3, 4, 3, 0.7, 0.6, left, 1, 0.3, 0.4, 0.6, 0.7, 1.163516000029631, 1, 95.07199096679688, 1.6332371999742463, 12.000000, 66.000000, 2.000000,2.000000,1.000000,6.000000,0.500000,1.000000
2, test, 5, no_probe, 24, 4, 3, 3, 4, 0.7, 0.6, right, 2, 0.3, 0.4, 0.6, 0.7, 1.0119470999925397, 1, , , 13.000000, 67.000000, 1.000000,3.000000,1.000000,6.000000,0.500000,1.000000
2, test, 5, no_probe, 25, 4, 3, 3, 4, 0.7, 0.6, right, 2, 0.3, 0.4, 0.6, 0.7, 0.6039394999970682, 0, , , 13.000000, 67.000000, 2.000000,3.000000,1.000000,6.000000,0.500000,1.000000
2, test, 6, no_probe, 1, 2, 3, 3, 2, 0.4, 0.6, right, 2, 0.3, 0.4, 0.6, 0.7, 1.188168999971822, 0, , , 0.000000, 67.000000, 1.000000,2.000000,1.000000,6.000000,0.500000,1.000000
2, test, 6, probe, 2, 4, 2, 2, 4, 0.7, 0.4, right, 2, 0.3, 0.4, 0.6, 0.7, 1.1497690999531187, 0, 94.14212036132812, 3.7499624000047334, 0.000000, 67.000000, 2.000000,2.000000,1.000000,6.000000,0.500000,1.000000
2, test, 6, no_probe, 3, 2, 4, 2, 4, 0.4, 0.7, left, 1, 0.3, 0.4, 0.6, 0.7, 1.822904100001324, 0, , , 0.000000, 67.000000, 1.000000,3.000000,1.000000,6.000000,0.500000,1.000000
2, test, 6, no_probe, 4, 4, 2, 2, 4, 0.7, 0.4, right, 2, 0.3, 0.4, 0.6, 0.7, 0.9066918000462465, 1, , , 1.000000, 68.000000, 2.000000,3.000000,1.000000,6.000000,0.500000,1.000000
2, test, 6, probe, 5, 4, 2, 2, 4, 0.7, 0.4, right, 2, 0.3, 0.4, 0.6, 0.7, 0.7682367999805138, 1, 98.47113037109375, 1.950012399989646, 2.000000, 69.000000, 3.000000,3.000000,1.000000,6.000000,0.500000,1.000000
2, test, 6, no_probe, 6, 2, 1, 2, 1, 0.4, 0.3, left, 1, 0.3, 0.4, 0.6, 0.7, 2.3832517999690026, 1, , , 3.000000, 70.000000, 1.000000,2.000000,1.000000,6.000000,0.500000,1.000000
2, test, 6, probe, 7, 4, 1, 4, 1, 0.7, 0.3, left, 1, 0.3, 0.4, 0.6, 0.7, 2.0665850999648683, 0, 96.1224365234375, 1.9500188999809325, 3.000000, 70.000000, 2.000000,2.000000,1.000000,6.000000,0.500000,1.000000
2, test, 6, no_probe, 8, 1, 4, 4, 1, 0.3, 0.7, right, 2, 0.3, 0.4, 0.6, 0.7, 1.285666299983859, 0, , , 3.000000, 70.000000, 1.000000,3.000000,1.000000,6.000000,0.500000,1.000000
2, test, 6, no_probe, 9, 2, 1, 2, 1, 0.4, 0.3, left, 1, 0.3, 0.4, 0.6, 0.7, 1.2993691000156105, 0, , , 3.000000, 70.000000, 2.000000,3.000000,1.000000,6.000000,0.500000,1.000000
2, test, 6, probe, 10, 4, 2, 4, 2, 0.7, 0.4, left, 1, 0.3, 0.4, 0.6, 0.7, 2.38070089998655, 1, 85.39834594726562, 2.133263600000646, 4.000000, 71.000000, 3.000000,3.000000,1.000000,6.000000,0.500000,1.000000
2, test, 6, no_probe, 11, 4, 1, 1, 4, 0.7, 0.3, right, 2, 0.3, 0.4, 0.6, 0.7, 2.7728054000181146, 0, , , 4.000000, 71.000000, 1.000000,2.000000,1.000000,6.000000,0.500000,1.000000
2, test, 6, probe, 12, 3, 1, 3, 1, 0.6, 0.3, left, 1, 0.3, 0.4, 0.6, 0.7, 1.4499754999997094, 0, 82.43536376953125, 2.4666716000065207, 4.000000, 71.000000, 2.000000,2.000000,1.000000,6.000000,0.500000,1.000000
2, test, 6, no_probe, 13, 3, 4, 3, 4, 0.6, 0.7, left, 1, 0.3, 0.4, 0.6, 0.7, 1.606163899996318, 1, , , 5.000000, 72.000000, 1.000000,3.000000,1.000000,6.000000,0.500000,1.000000
2, test, 6, no_probe, 14, 2, 1, 1, 2, 0.4, 0.3, right, 2, 0.3, 0.4, 0.6, 0.7, 1.7628357000066899, 1, , , 6.000000, 73.000000, 2.000000,3.000000,1.000000,6.000000,0.500000,1.000000
2, test, 6, probe, 15, 4, 1, 1, 4, 0.7, 0.3, right, 2, 0.3, 0.4, 0.6, 0.7, 1.1338372000027448, 1, 93.49053955078125, 2.1166293999995105, 7.000000, 74.000000, 3.000000,3.000000,1.000000,6.000000,0.500000,1.000000
2, test, 6, no_probe, 16, 3, 4, 3, 4, 0.6, 0.7, left, 1, 0.3, 0.4, 0.6, 0.7, 0.8929865999962203, 0, , , 7.000000, 74.000000, 1.000000,3.000000,1.000000,6.000000,0.500000,1.000000
2, test, 6, no_probe, 17, 3, 1, 3, 1, 0.6, 0.3, left, 1, 0.3, 0.4, 0.6, 0.7, 1.3059633999946527, 0, , , 7.000000, 74.000000, 2.000000,3.000000,1.000000,6.000000,0.500000,1.000000
2, test, 6, probe, 18, 4, 2, 2, 4, 0.7, 0.4, right, 2, 0.3, 0.4, 0.6, 0.7, 2.4594072999898344, 1, 88.84564208984375, 1.7499702000059187, 8.000000, 75.000000, 3.000000,3.000000,1.000000,6.000000,0.500000,1.000000
2, test, 6, no_probe, 19, 4, 2, 2, 4, 0.7, 0.4, right, 2, 0.3, 0.4, 0.6, 0.7, 1.147157099971082, 1, , , 9.000000, 76.000000, 1.000000,3.000000,1.000000,6.000000,0.500000,1.000000
2, test, 6, no_probe, 20, 4, 1, 1, 4, 0.7, 0.3, right, 2, 0.3, 0.4, 0.6, 0.7, 0.7149467000272125, 0, , , 9.000000, 76.000000, 2.000000,3.000000,1.000000,6.000000,0.500000,1.000000
2, test, 6, probe, 21, 1, 2, 1, 2, 0.3, 0.4, left, 1, 0.3, 0.4, 0.6, 0.7, 1.2041194000048563, 1, 92.65975952148438, 2.516630099969916, 10.000000, 77.000000, 3.000000,3.000000,1.000000,6.000000,0.500000,1.000000
2, test, 6, no_probe, 22, 2, 1, 1, 2, 0.4, 0.3, right, 2, 0.3, 0.4, 0.6, 0.7, 2.411680399964098, 0, , , 10.000000, 77.000000, 1.000000,3.000000,1.000000,6.000000,0.500000,1.000000
2, test, 6, no_probe, 23, 4, 3, 4, 3, 0.7, 0.6, left, 1, 0.3, 0.4, 0.6, 0.7, 1.6155765000148676, 0, , , 10.000000, 77.000000, 2.000000,3.000000,1.000000,6.000000,0.500000,1.000000
2, test, 6, probe, 24, 3, 2, 2, 3, 0.6, 0.4, right, 2, 0.3, 0.4, 0.6, 0.7, 0.341255999985151, 1, 80.08383178710938, 2.049958699964918, 11.000000, 78.000000, 3.000000,3.000000,1.000000,6.000000,0.500000,1.000000
2, test, 6, no_probe, 25, 3, 1, 1, 3, 0.6, 0.3, right, 2, 0.3, 0.4, 0.6, 0.7, 2.1139832999906503, 1, , , 12.000000, 79.000000, 1.000000,2.000000,1.000000,6.000000,0.500000,1.000000
2, test, 7, no_probe, 1, 3, 4, 3, 4, 0.6, 0.7, left, 1, 0.3, 0.4, 0.6, 0.7, 0.8986778000253253, 1, , , 1.000000, 80.000000, 1.000000,2.000000,1.000000,6.000000,0.500000,1.000000
2, test, 7, probe, 2, 2, 1, 1, 2, 0.4, 0.3, right, 2, 0.3, 0.4, 0.6, 0.7, 2.55494349997025, 0, 80.42373657226562, 1.8833644000114873, 1.000000, 80.000000, 2.000000,2.000000,1.000000,6.000000,0.500000,1.000000
2, test, 7, no_probe, 3, 3, 4, 3, 4, 0.6, 0.7, left, 1, 0.3, 0.4, 0.6, 0.7, 1.3188076000078581, 0, , , 1.000000, 80.000000, 1.000000,2.000000,1.000000,6.000000,0.500000,1.000000
2, test, 7, probe, 4, 2, 4, 4, 2, 0.4, 0.7, right, 2, 0.3, 0.4, 0.6, 0.7, 1.9903423999785446, 0, 77.09005737304688, 3.56662579998374, 1.000000, 80.000000, 2.000000,2.000000,1.000000,6.000000,0.500000,1.000000
2, test, 7, no_probe, 5, 4, 2, 2, 4, 0.7, 0.4, right, 2, 0.3, 0.4, 0.6, 0.7, 1.861321999982465, 1, , , 2.000000, 81.000000, 1.000000,2.000000,1.000000,6.000000,0.500000,1.000000
2, test, 7, probe, 6, 3, 2, 2, 3, 0.6, 0.4, right, 2, 0.3, 0.4, 0.6, 0.7, 1.4042103000101633, 1, 84.27017211914062, 2.4499456000048667, 3.000000, 82.000000, 2.000000,2.000000,1.000000,6.000000,0.500000,1.000000
2, test, 7, no_probe, 7, 3, 2, 3, 2, 0.6, 0.4, left, 1, 0.3, 0.4, 0.6, 0.7, 0.9662183999898843, 0, , , 3.000000, 82.000000, 1.000000,3.000000,1.000000,6.000000,0.500000,1.000000
2, test, 7, no_probe, 8, 2, 3, 3, 2, 0.4, 0.6, right, 2, 0.3, 0.4, 0.6, 0.7, 2.0293219999875873, 0, , , 3.000000, 82.000000, 2.000000,3.000000,1.000000,6.000000,0.500000,1.000000
2, test, 7, probe, 9, 3, 1, 1, 3, 0.6, 0.3, right, 2, 0.3, 0.4, 0.6, 0.7, 1.184230100014247, 1, 89.96810913085938, 2.3166527000139467, 4.000000, 83.000000, 3.000000,3.000000,1.000000,6.000000,0.500000,1.000000
2, test, 7, no_probe, 10, 3, 1, 3, 1, 0.6, 0.3, left, 1, 0.3, 0.4, 0.6, 0.7, 1.057378500001505, 0, , , 4.000000, 83.000000, 1.000000,2.000000,1.000000,6.000000,0.500000,1.000000
2, test, 7, probe, 11, 2, 1, 1, 2, 0.4, 0.3, right, 2, 0.3, 0.4, 0.6, 0.7, 2.3804726999951527, 1, 93.65835571289062, 2.083296300028451, 5.000000, 84.000000, 2.000000,2.000000,1.000000,6.000000,0.500000,1.000000
2, test, 7, no_probe, 12, 3, 1, 1, 3, 0.6, 0.3, right, 2, 0.3, 0.4, 0.6, 0.7, 1.2218397000106052, 1, , , 6.000000, 85.000000, 1.000000,2.000000,1.000000,6.000000,0.500000,1.000000
2, test, 7, probe, 13, 2, 1, 1, 2, 0.4, 0.3, right, 2, 0.3, 0.4, 0.6, 0.7, 1.5537670999765396, 0, 89.93081665039062, 1.949971599970013, 6.000000, 85.000000, 2.000000,2.000000,1.000000,6.000000,0.500000,1.000000
2, test, 7, no_probe, 14, 4, 1, 1, 4, 0.7, 0.3, right, 2, 0.3, 0.4, 0.6, 0.7, 1.275240799994208, 0, , , 6.000000, 85.000000, 1.000000,2.000000,1.000000,6.000000,0.500000,1.000000
2, test, 7, probe, 15, 2, 1, 2, 1, 0.4, 0.3, left, 1, 0.3, 0.4, 0.6, 0.7, 1.7205715000163764, 0, 83.21163940429688, 1.7832662999862805, 6.000000, 85.000000, 2.000000,2.000000,1.000000,6.000000,0.500000,1.000000
2, test, 7, no_probe, 16, 2, 1, 1, 2, 0.4, 0.3, right, 2, 0.3, 0.4, 0.6, 0.7, 1.432776700006798, 1, , , 7.000000, 86.000000, 1.000000,3.000000,1.000000,6.000000,0.500000,1.000000
2, test, 7, no_probe, 17, 3, 2, 3, 2, 0.6, 0.4, left, 1, 0.3, 0.4, 0.6, 0.7, 0.8084783999947831, 1, , , 8.000000, 87.000000, 2.000000,3.000000,1.000000,6.000000,0.500000,1.000000
2, test, 7, probe, 18, 3, 4, 3, 4, 0.6, 0.7, left, 1, 0.3, 0.4, 0.6, 0.7, 1.3745810000109486, 0, 96.38067626953125, 2.5666566000436433, 8.000000, 87.000000, 3.000000,3.000000,1.000000,6.000000,0.500000,1.000000
2, test, 7, no_probe, 19, 3, 1, 1, 3, 0.6, 0.3, right, 2, 0.3, 0.4, 0.6, 0.7, 1.2697808999801055, 0, , , 8.000000, 87.000000, 1.000000,2.000000,1.000000,6.000000,0.500000,1.000000
2, test, 7, probe, 20, 4, 2, 2, 4, 0.7, 0.4, right, 2, 0.3, 0.4, 0.6, 0.7, 1.087620300007984, 1, 90.2032470703125, 1.883299299981445, 9.000000, 88.000000, 2.000000,2.000000,1.000000,6.000000,0.500000,1.000000
2, test, 7, no_probe, 21, 3, 1, 1, 3, 0.6, 0.3, right, 2, 0.3, 0.4, 0.6, 0.7, 1.125195500033442, 1, , , 10.000000, 89.000000, 1.000000,2.000000,1.000000,6.000000,0.500000,1.000000
2, test, 7, probe, 22, 4, 1, 1, 4, 0.7, 0.3, right, 2, 0.3, 0.4, 0.6, 0.7, 1.7511444000410847, 0, 93.43673706054688, 2.4166136999847367, 10.000000, 89.000000, 2.000000,2.000000,1.000000,6.000000,0.500000,1.000000
2, test, 7, no_probe, 23, 3, 4, 3, 4, 0.6, 0.7, left, 1, 0.3, 0.4, 0.6, 0.7, 2.795982300012838, 1, , , 11.000000, 90.000000, 1.000000,3.000000,1.000000,6.000000,0.500000,1.000000
2, test, 7, no_probe, 24, 2, 4, 4, 2, 0.4, 0.7, right, 2, 0.3, 0.4, 0.6, 0.7, 0.9805746999918483, 1, , , 12.000000, 91.000000, 2.000000,3.000000,1.000000,6.000000,0.500000,1.000000
2, test, 7, probe, 25, 3, 1, 1, 3, 0.6, 0.3, right, 2, 0.3, 0.4, 0.6, 0.7, 0.9672334999777377, 1, 95.67898559570312, 1.6333462999900803, 13.000000, 92.000000, 3.000000,3.000000,1.000000,6.000000,0.500000,1.000000
2, test, 8, no_probe, 1, 1, 3, 3, 1, 0.3, 0.6, right, 2, 0.3, 0.4, 0.6, 0.7, 0.7155763999908231, 1, , , 1.000000, 93.000000, 1.000000,3.000000,1.000000,6.000000,0.500000,1.000000
2, test, 8, no_probe, 2, 2, 3, 3, 2, 0.4, 0.6, right, 2, 0.3, 0.4, 0.6, 0.7, 1.4612165000289679, 0, , , 1.000000, 93.000000, 2.000000,3.000000,1.000000,6.000000,0.500000,1.000000
2, test, 8, probe, 3, 1, 4, 4, 1, 0.3, 0.7, right, 2, 0.3, 0.4, 0.6, 0.7, 1.6756133000017144, 0, 99.99935913085938, 1.9495788000058383, 1.000000, 93.000000, 3.000000,3.000000,1.000000,6.000000,0.500000,1.000000
2, test, 8, no_probe, 4, 4, 1, 4, 1, 0.7, 0.3, left, 1, 0.3, 0.4, 0.6, 0.7, 0.8191981000127271, 1, , , 2.000000, 94.000000, 1.000000,2.000000,1.000000,6.000000,0.500000,1.000000
2, test, 8, probe, 5, 1, 2, 1, 2, 0.3, 0.4, left, 1, 0.3, 0.4, 0.6, 0.7, 2.007392500003334, 0, 95.11276245117188, 1.4499571000342257, 2.000000, 94.000000, 2.000000,2.000000,1.000000,6.000000,0.500000,1.000000
2, test, 8, no_probe, 6, 4, 1, 1, 4, 0.7, 0.3, right, 2, 0.3, 0.4, 0.6, 0.7, 1.6488211000105366, 0, , , 2.000000, 94.000000, 1.000000,2.000000,1.000000,6.000000,0.500000,1.000000
2, test, 8, probe, 7, 1, 2, 1, 2, 0.3, 0.4, left, 1, 0.3, 0.4, 0.6, 0.7, 1.1296128999674693, 0, 93.28912353515625, 1.6499386000214145, 2.000000, 94.000000, 2.000000,2.000000,1.000000,6.000000,0.500000,1.000000
2, test, 8, no_probe, 8, 4, 1, 4, 1, 0.7, 0.3, left, 1, 0.3, 0.4, 0.6, 0.7, 1.4971392000443302, 1, , , 3.000000, 95.000000, 1.000000,3.000000,1.000000,6.000000,0.500000,1.000000
2, test, 8, no_probe, 9, 1, 3, 3, 1, 0.3, 0.6, right, 2, 0.3, 0.4, 0.6, 0.7, 1.3225478999665938, 0, , , 3.000000, 95.000000, 2.000000,3.000000,1.000000,6.000000,0.500000,1.000000
2, test, 8, probe, 10, 3, 1, 1, 3, 0.6, 0.3, right, 2, 0.3, 0.4, 0.6, 0.7, 1.9005618000519462, 1, 90.97027587890625, 1.7166566000087187, 4.000000, 96.000000, 3.000000,3.000000,1.000000,6.000000,0.500000,1.000000
2, test, 8, no_probe, 11, 4, 1, 4, 1, 0.7, 0.3, left, 1, 0.3, 0.4, 0.6, 0.7, 2.235726999992039, 1, , , 5.000000, 97.000000, 1.000000,2.000000,1.000000,6.000000,0.500000,1.000000
2, test, 8, probe, 12, 4, 2, 4, 2, 0.7, 0.4, left, 1, 0.3, 0.4, 0.6, 0.7, 1.5630928000318818, 1, 99.999755859375, 1.733336600009352, 6.000000, 98.000000, 2.000000,2.000000,1.000000,6.000000,0.500000,1.000000
2, test, 8, no_probe, 13, 4, 3, 4, 3, 0.7, 0.6, left, 1, 0.3, 0.4, 0.6, 0.7, 0.8990483000525273, 1, , , 7.000000, 99.000000, 1.000000,3.000000,1.000000,6.000000,0.500000,1.000000
2, test, 8, no_probe, 14, 4, 2, 4, 2, 0.7, 0.4, left, 1, 0.3, 0.4, 0.6, 0.7, 1.4278144999989308, 1, , , 8.000000, 100.000000, 2.000000,3.000000,1.000000,6.000000,0.500000,1.000000
2, test, 8, probe, 15, 4, 1, 4, 1, 0.7, 0.3, left, 1, 0.3, 0.4, 0.6, 0.7, 1.0680788999889046, 1, 99.99981689453125, 1.6166365999961272, 9.000000, 101.000000, 3.000000,3.000000,1.000000,6.000000,0.500000,1.000000
2, test, 8, no_probe, 16, 4, 1, 4, 1, 0.7, 0.3, left, 1, 0.3, 0.4, 0.6, 0.7, 1.4453302000183612, 1, , , 10.000000, 102.000000, 1.000000,2.000000,1.000000,6.000000,0.500000,1.000000
2, test, 8, probe, 17, 3, 2, 3, 2, 0.6, 0.4, left, 1, 0.3, 0.4, 0.6, 0.7, 3.4483153999899514, 0, 93.02276611328125, 2.2832970999879763, 10.000000, 102.000000, 2.000000,2.000000,1.000000,6.000000,0.500000,1.000000
2, test, 8, no_probe, 18, 4, 1, 4, 1, 0.7, 0.3, left, 1, 0.3, 0.4, 0.6, 0.7, 1.0308506000437774, 0, , , 10.000000, 102.000000, 1.000000,2.000000,1.000000,6.000000,0.500000,1.000000
2, test, 8, probe, 19, 2, 1, 2, 1, 0.4, 0.3, left, 1, 0.3, 0.4, 0.6, 0.7, 1.831929099978879, 1, 87.57077026367188, 1.7999711000011303, 11.000000, 103.000000, 2.000000,2.000000,1.000000,6.000000,0.500000,1.000000
2, test, 8, no_probe, 20, 4, 2, 2, 4, 0.7, 0.4, right, 2, 0.3, 0.4, 0.6, 0.7, 1.670404500036966, 0, , , 11.000000, 103.000000, 1.000000,2.000000,1.000000,6.000000,0.500000,1.000000
2, test, 8, probe, 21, 3, 2, 2, 3, 0.6, 0.4, right, 2, 0.3, 0.4, 0.6, 0.7, 1.1169470999739133, 1, 84.15325927734375, 1.7999618999892846, 12.000000, 104.000000, 2.000000,2.000000,1.000000,6.000000,0.500000,1.000000
2, test, 8, no_probe, 22, 3, 1, 3, 1, 0.6, 0.3, left, 1, 0.3, 0.4, 0.6, 0.7, 1.3845703999977559, 1, , , 13.000000, 105.000000, 1.000000,2.000000,1.000000,6.000000,0.500000,1.000000
2, test, 8, probe, 23, 4, 1, 4, 1, 0.7, 0.3, left, 1, 0.3, 0.4, 0.6, 0.7, 2.1937198000377975, 1, 90.59091186523438, 1.916631200001575, 14.000000, 106.000000, 2.000000,2.000000,1.000000,6.000000,0.500000,1.000000
2, test, 8, no_probe, 24, 3, 2, 2, 3, 0.6, 0.4, right, 2, 0.3, 0.4, 0.6, 0.7, 1.9062812000047415, 1, , , 15.000000, 107.000000, 1.000000,3.000000,1.000000,6.000000,0.500000,1.000000
2, test, 8, no_probe, 25, 2, 1, 1, 2, 0.4, 0.3, right, 2, 0.3, 0.4, 0.6, 0.7, 2.6008079000166617, 0, , , 15.000000, 107.000000, 2.000000,3.000000,1.000000,6.000000,0.500000,1.000000
