subject, block_type, block, thought probe, trial, chosen, unchosen, offer_left_image, offer_right_image, exp_value_chosen, exp_value_unchosen, choice_location, choice_key, exp_value1, exp_value2, exp_value3, exp_value4, RT, reward, vas, RT_vas, coins_per_block, coins_per_task, count_to_prob, ntrial_to_prob, ITI_duration,RT_deadline,choice_feedback_duration,outcome_duration
53, test, 1, no_probe, 1, 2, 3, 2, 3, 0.4, 0.6, left, 1, 0.3, 0.4, 0.6, 0.7, 0.6592635000124574, 1, , , 1.000000, 1.000000, 1.000000,2.000000,1.000000,6.000000,0.500000,1.000000
53, test, 1, probe, 2, 1, 4, 4, 1, 0.3, 0.7, right, 2, 0.3, 0.4, 0.6, 0.7, 0.7216640000697225, 0, 99.99905395507812, 3.8998364999424666, 1.000000, 1.000000, 2.000000,2.000000,1.000000,6.000000,0.500000,1.000000
53, test, 1, no_probe, 3, 1, 4, 1, 4, 0.3, 0.7, left, 1, 0.3, 0.4, 0.6, 0.7, 0.7894953000359237, 1, , , 2.000000, 2.000000, 1.000000,2.000000,1.000000,6.000000,0.500000,1.000000
53, test, 1, probe, 4, 3, 4, 4, 3, 0.6, 0.7, right, 2, 0.3, 0.4, 0.6, 0.7, 1.0782397000584751, 1, 99.99887084960938, 2.8499565001111478, 3.000000, 3.000000, 2.000000,2.000000,1.000000,6.000000,0.500000,1.000000
53, test, 1, no_probe, 5, 1, 4, 4, 1, 0.3, 0.7, right, 2, 0.3, 0.4, 0.6, 0.7, 1.0339617000427097, 0, , , 3.000000, 3.000000, 1.000000,3.000000,1.000000,6.000000,0.500000,1.000000
53, test, 1, no_probe, 6, 3, 2, 3, 2, 0.6, 0.4, left, 1, 0.3, 0.4, 0.6, 0.7, 1.0014001000672579, 0, , , 3.000000, 3.000000, 2.000000,3.000000,1.000000,6.000000,0.500000,1.000000
53, test, 1, no_probe, 1, 4, 3, 3, 4, 0.7, 0.6, right, 2, 0.3, 0.4, 0.6, 0.7, 0.7351210999768227, 0, , , 0.000000, 3.000000, 1.000000,2.000000,1.000000,6.000000,0.500000,1.000000
53, test, 1, probe, 2, 2, 3, 3, 2, 0.4, 0.6, right, 2, 0.3, 0.4, 0.6, 0.7, 0.7996694000903517, 0, 99.99798583984375, 4.3332653001416475, 0.000000, 3.000000, 2.000000,2.000000,1.000000,6.000000,0.500000,1.000000
53, test, 1, no_probe, 3, 1, 2, 1, 2, 0.3, 0.4, left, 1, 0.3, 0.4, 0.6, 0.7, 1.2342391000129282, 0, , , 0.000000, 3.000000, 1.000000,3.000000,1.000000,6.000000,0.500000,1.000000
53, test, 1, no_probe, 4, 3, 4, 3, 4, 0.6, 0.7, left, 1, 0.3, 0.4, 0.6, 0.7, 1.0440334999002516, 1, , , 1.000000, 4.000000, 2.000000,3.000000,1.000000,6.000000,0.500000,1.000000
53, test, 1, probe, 5, 4, 3, 3, 4, 0.7, 0.6, right, 2, 0.3, 0.4, 0.6, 0.7, 0.9103480000048876, 1, 99.99801635742188, 3.199945200001821, 2.000000, 5.000000, 3.000000,3.000000,1.000000,6.000000,0.500000,1.000000
53, test, 1, no_probe, 6, 2, 3, 2, 3, 0.4, 0.6, left, 1, 0.3, 0.4, 0.6, 0.7, 1.1714176000095904, 0, , , 2.000000, 5.000000, 1.000000,2.000000,1.000000,6.000000,0.500000,1.000000
53, test, 1, probe, 7, 3, 4, 3, 4, 0.6, 0.7, left, 1, 0.3, 0.4, 0.6, 0.7, 3.3827609000727534, 1, 99.9949951171875, 4.416573400143534, 3.000000, 6.000000, 2.000000,2.000000,1.000000,6.000000,0.500000,1.000000
53, test, 1, no_probe, 8, 1, 4, 1, 4, 0.3, 0.7, left, 1, 0.3, 0.4, 0.6, 0.7, 1.1383198001421988, 0, , , 3.000000, 6.000000, 1.000000,2.000000,1.000000,6.000000,0.500000,1.000000
53, test, 1, probe, 9, 3, 4, 4, 3, 0.6, 0.7, right, 2, 0.3, 0.4, 0.6, 0.7, 2.3139111001510173, 1, 99.99899291992188, 2.5166303999722004, 4.000000, 7.000000, 2.000000,2.000000,1.000000,6.000000,0.500000,1.000000
53, test, 1, no_probe, 10, 3, 1, 3, 1, 0.6, 0.3, left, 1, 0.3, 0.4, 0.6, 0.7, 1.6763488999567926, 1, , , 5.000000, 8.000000, 1.000000,3.000000,1.000000,6.000000,0.500000,1.000000
53, test, 1, no_probe, 11, 3, 1, 1, 3, 0.6, 0.3, right, 2, 0.3, 0.4, 0.6, 0.7, 1.4827944000717252, 0, , , 5.000000, 8.000000, 2.000000,3.000000,1.000000,6.000000,0.500000,1.000000
53, test, 1, probe, 12, 4, 3, 4, 3, 0.7, 0.6, left, 1, 0.3, 0.4, 0.6, 0.7, 1.0006370998453349, 1, 97.83502197265625, 2.7499422999098897, 6.000000, 9.000000, 3.000000,3.000000,1.000000,6.000000,0.500000,1.000000
53, test, 1, no_probe, 13, 3, 1, 3, 1, 0.6, 0.3, left, 1, 0.3, 0.4, 0.6, 0.7, 1.240179899847135, 1, , , 7.000000, 10.000000, 1.000000,3.000000,1.000000,6.000000,0.500000,1.000000
53, test, 1, no_probe, 14, 3, 2, 3, 2, 0.6, 0.4, left, 1, 0.3, 0.4, 0.6, 0.7, 1.391519600059837, 1, , , 8.000000, 11.000000, 2.000000,3.000000,1.000000,6.000000,0.500000,1.000000
53, test, 1, probe, 15, 2, 1, 1, 2, 0.4, 0.3, right, 2, 0.3, 0.4, 0.6, 0.7, 2.6861723999027163, 1, 99.99957275390625, 2.133311799960211, 9.000000, 12.000000, 3.000000,3.000000,1.000000,6.000000,0.500000,1.000000
53, test, 1, no_probe, 16, 3, 2, 3, 2, 0.6, 0.4, left, 1, 0.3, 0.4, 0.6, 0.7, 1.7522950998973101, 1, , , 10.000000, 13.000000, 1.000000,2.000000,1.000000,6.000000,0.500000,1.000000
53, test, 1, probe, 17, 4, 1, 1, 4, 0.7, 0.3, right, 2, 0.3, 0.4, 0.6, 0.7, 1.8639287000987679, 0, 98.17306518554688, 3.0499789998866618, 10.000000, 13.000000, 2.000000,2.000000,1.000000,6.000000,0.500000,1.000000
53, test, 1, no_probe, 18, 3, 4, 3, 4, 0.6, 0.7, left, 1, 0.3, 0.4, 0.6, 0.7, 0.9674384000245482, 0, , , 10.000000, 13.000000, 1.000000,3.000000,1.000000,6.000000,0.500000,1.000000
53, test, 1, no_probe, 19, 3, 4, 4, 3, 0.6, 0.7, right, 2, 0.3, 0.4, 0.6, 0.7, 1.014129800023511, 0, , , 10.000000, 13.000000, 2.000000,3.000000,1.000000,6.000000,0.500000,1.000000
53, test, 1, probe, 20, 4, 2, 4, 2, 0.7, 0.4, left, 1, 0.3, 0.4, 0.6, 0.7, 0.8963093000929803, 1, 99.17611694335938, 5.2665897000115365, 11.000000, 14.000000, 3.000000,3.000000,1.000000,6.000000,0.500000,1.000000
53, test, 1, no_probe, 21, 2, 1, 2, 1, 0.4, 0.3, left, 1, 0.3, 0.4, 0.6, 0.7, 2.371938200201839, 1, , , 12.000000, 15.000000, 1.000000,3.000000,1.000000,6.000000,0.500000,1.000000
53, test, 1, no_probe, 22, 4, 2, 4, 2, 0.7, 0.4, left, 1, 0.3, 0.4, 0.6, 0.7, 0.4440317000262439, 1, , , 13.000000, 16.000000, 2.000000,3.000000,1.000000,6.000000,0.500000,1.000000
53, test, 1, probe, 23, 2, 1, 2, 1, 0.4, 0.3, left, 1, 0.3, 0.4, 0.6, 0.7, 1.884442400187254, 1, 96.17813110351562, 2.7999882001895458, 14.000000, 17.000000, 3.000000,3.000000,1.000000,6.000000,0.500000,1.000000
53, test, 1, no_probe, 24, 4, 2, 4, 2, 0.7, 0.4, left, 1, 0.3, 0.4, 0.6, 0.7, 2.3355149999260902, 0, , , 14.000000, 17.000000, 1.000000,3.000000,1.000000,6.000000,0.500000,1.000000
53, test, 1, no_probe, 25, 3, 2, 3, 2, 0.6, 0.4, left, 1, 0.3, 0.4, 0.6, 0.7, 1.1887565001379699, 1, , , 15.000000, 18.000000, 2.000000,3.000000,1.000000,6.000000,0.500000,1.000000
53, test, 2, no_probe, 1, 4, 2, 4, 2, 0.7, 0.4, left, 1, 0.3, 0.4, 0.6, 0.7, 0.5586971999146044, 1, , , 1.000000, 19.000000, 1.000000,3.000000,1.000000,6.000000,0.500000,1.000000
53, test, 2, no_probe, 2, 1, 4, 1, 4, 0.3, 0.7, left, 1, 0.3, 0.4, 0.6, 0.7, 1.236593599896878, 0, , , 1.000000, 19.000000, 2.000000,3.000000,1.000000,6.000000,0.500000,1.000000
53, test, 2, probe, 3, 2, 1, 1, 2, 0.4, 0.3, right, 2, 0.3, 0.4, 0.6, 0.7, 1.3444290000479668, 1, 99.99935913085938, 2.5329642000142485, 2.000000, 20.000000, 3.000000,3.000000,1.000000,6.000000,0.500000,1.000000
53, test, 2, no_probe, 4, 3, 4, 3, 4, 0.6, 0.7, left, 1, 0.3, 0.4, 0.6, 0.7, 1.202175100101158, 0, , , 2.000000, 20.000000, 1.000000,3.000000,1.000000,6.000000,0.500000,1.000000
53, test, 2, no_probe, 5, 4, 3, 3, 4, 0.7, 0.6, right, 2, 0.3, 0.4, 0.6, 0.7, 0.6788445999845862, 1, , , 3.000000, 21.000000, 2.000000,3.000000,1.000000,6.000000,0.500000,1.000000
53, test, 2, probe, 6, 1, 3, 1, 3, 0.3, 0.6, left, 1, 0.3, 0.4, 0.6, 0.7, 1.4822360998950899, 0, 99.99948120117188, 2.183251899899915, 3.000000, 21.000000, 3.000000,3.000000,1.000000,6.000000,0.500000,1.000000
53, test, 2, no_probe, 7, 2, 3, 2, 3, 0.4, 0.6, left, 1, 0.3, 0.4, 0.6, 0.7, 1.4913891998585314, 0, , , 3.000000, 21.000000, 1.000000,2.000000,1.000000,6.000000,0.500000,1.000000
53, test, 2, probe, 8, 4, 3, 4, 3, 0.7, 0.6, left, 1, 0.3, 0.4, 0.6, 0.7, 1.188905999995768, 1, 94.8251953125, 3.0333132999949157, 4.000000, 22.000000, 2.000000,2.000000,1.000000,6.000000,0.500000,1.000000
53, test, 2, no_probe, 9, 2, 1, 1, 2, 0.4, 0.3, right, 2, 0.3, 0.4, 0.6, 0.7, 0.8193701000418514, 0, , , 4.000000, 22.000000, 1.000000,2.000000,1.000000,6.000000,0.500000,1.000000
53, test, 2, probe, 10, 4, 2, 4, 2, 0.7, 0.4, left, 1, 0.3, 0.4, 0.6, 0.7, 0.7093346999026835, 0, 99.99862670898438, 2.849998800083995, 4.000000, 22.000000, 2.000000,2.000000,1.000000,6.000000,0.500000,1.000000
53, test, 2, no_probe, 11, 3, 1, 3, 1, 0.6, 0.3, left, 1, 0.3, 0.4, 0.6, 0.7, 0.3918584000784904, 0, , , 4.000000, 22.000000, 1.000000,3.000000,1.000000,6.000000,0.500000,1.000000
53, test, 2, no_probe, 12, 1, 3, 3, 1, 0.3, 0.6, right, 2, 0.3, 0.4, 0.6, 0.7, 0.8215952999889851, 0, , , 4.000000, 22.000000, 2.000000,3.000000,1.000000,6.000000,0.500000,1.000000
53, test, 2, probe, 13, 3, 1, 3, 1, 0.6, 0.3, left, 1, 0.3, 0.4, 0.6, 0.7, 1.037939399946481, 1, 98.9788818359375, 2.216652899980545, 5.000000, 23.000000, 3.000000,3.000000,1.000000,6.000000,0.500000,1.000000
53, test, 2, no_probe, 14, 2, 1, 2, 1, 0.4, 0.3, left, 1, 0.3, 0.4, 0.6, 0.7, 2.884489699965343, 1, , , 6.000000, 24.000000, 1.000000,3.000000,1.000000,6.000000,0.500000,1.000000
53, test, 2, no_probe, 15, 2, 1, 2, 1, 0.4, 0.3, left, 1, 0.3, 0.4, 0.6, 0.7, 0.3785585002042353, 0, , , 6.000000, 24.000000, 2.000000,3.000000,1.000000,6.000000,0.500000,1.000000
53, test, 2, probe, 16, 3, 1, 3, 1, 0.6, 0.3, left, 1, 0.3, 0.4, 0.6, 0.7, 1.908064299961552, 0, 92.55355834960938, 2.733304199995473, 6.000000, 24.000000, 3.000000,3.000000,1.000000,6.000000,0.500000,1.000000
53, test, 2, no_probe, 17, 3, 1, 1, 3, 0.6, 0.3, right, 2, 0.3, 0.4, 0.6, 0.7, 1.0032047000713646, 1, , , 7.000000, 25.000000, 1.000000,2.000000,1.000000,6.000000,0.500000,1.000000
53, test, 2, probe, 18, 4, 1, 4, 1, 0.7, 0.3, left, 1, 0.3, 0.4, 0.6, 0.7, 0.987859700107947, 0, 92.9656982421875, 2.066616900032386, 7.000000, 25.000000, 2.000000,2.000000,1.000000,6.000000,0.500000,1.000000
53, test, 2, no_probe, 19, 4, 1, 4, 1, 0.7, 0.3, left, 1, 0.3, 0.4, 0.6, 0.7, 0.6108430000022054, 1, , , 8.000000, 26.000000, 1.000000,3.000000,1.000000,6.000000,0.500000,1.000000
53, test, 2, no_probe, 20, 2, 3, 3, 2, 0.4, 0.6, right, 2, 0.3, 0.4, 0.6, 0.7, 1.7064326999243349, 0, , , 8.000000, 26.000000, 2.000000,3.000000,1.000000,6.000000,0.500000,1.000000
53, test, 2, probe, 21, 3, 1, 1, 3, 0.6, 0.3, right, 2, 0.3, 0.4, 0.6, 0.7, 0.572660000063479, 1, 99.48220825195312, 2.9332701999228448, 9.000000, 27.000000, 3.000000,3.000000,1.000000,6.000000,0.500000,1.000000
53, test, 2, no_probe, 22, 4, 1, 1, 4, 0.7, 0.3, right, 2, 0.3, 0.4, 0.6, 0.7, 1.5234499999787658, 0, , , 9.000000, 27.000000, 1.000000,3.000000,1.000000,6.000000,0.500000,1.000000
53, test, 2, no_probe, 23, 3, 1, 3, 1, 0.6, 0.3, left, 1, 0.3, 0.4, 0.6, 0.7, 1.0445671998895705, 0, , , 9.000000, 27.000000, 2.000000,3.000000,1.000000,6.000000,0.500000,1.000000
53, test, 2, probe, 24, 1, 4, 4, 1, 0.3, 0.7, right, 2, 0.3, 0.4, 0.6, 0.7, 0.7169143999926746, 0, 98.32138061523438, 1.9332712998148054, 9.000000, 27.000000, 3.000000,3.000000,1.000000,6.000000,0.500000,1.000000
53, test, 2, no_probe, 25, 4, 3, 4, 3, 0.7, 0.6, left, 1, 0.3, 0.4, 0.6, 0.7, 1.5935711998026818, 1, , , 10.000000, 28.000000, 1.000000,2.000000,1.000000,6.000000,0.500000,1.000000
53, test, 3, no_probe, 1, 3, 4, 4, 3, 0.6, 0.7, right, 2, 0.3, 0.4, 0.6, 0.7, 1.1134947000537068, 0, , , 0.000000, 28.000000, 1.000000,3.000000,1.000000,6.000000,0.500000,1.000000
53, test, 3, no_probe, 2, 4, 2, 2, 4, 0.7, 0.4, right, 2, 0.3, 0.4, 0.6, 0.7, 0.9694191999733448, 1, , , 1.000000, 29.000000, 2.000000,3.000000,1.000000,6.000000,0.500000,1.000000
53, test, 3, probe, 3, 4, 2, 2, 4, 0.7, 0.4, right, 2, 0.3, 0.4, 0.6, 0.7, 1.120634000049904, 1, 99.99957275390625, 2.1996273000258952, 2.000000, 30.000000, 3.000000,3.000000,1.000000,6.000000,0.500000,1.000000
53, test, 3, no_probe, 4, 4, 1, 4, 1, 0.7, 0.3, left, 1, 0.3, 0.4, 0.6, 0.7, 0.5724679999984801, 1, , , 3.000000, 31.000000, 1.000000,3.000000,1.000000,6.000000,0.500000,1.000000
53, test, 3, no_probe, 5, 4, 2, 2, 4, 0.7, 0.4, right, 2, 0.3, 0.4, 0.6, 0.7, 1.3419174998998642, 1, , , 4.000000, 32.000000, 2.000000,3.000000,1.000000,6.000000,0.500000,1.000000
53, test, 3, probe, 6, 4, 2, 4, 2, 0.7, 0.4, left, 1, 0.3, 0.4, 0.6, 0.7, 0.7914611999876797, 1, 99.99969482421875, 1.7832917000632733, 5.000000, 33.000000, 3.000000,3.000000,1.000000,6.000000,0.500000,1.000000
53, test, 3, no_probe, 7, 4, 3, 3, 4, 0.7, 0.6, right, 2, 0.3, 0.4, 0.6, 0.7, 0.5763044999912381, 1, , , 6.000000, 34.000000, 1.000000,3.000000,1.000000,6.000000,0.500000,1.000000
53, test, 3, no_probe, 8, 1, 3, 3, 1, 0.3, 0.6, right, 2, 0.3, 0.4, 0.6, 0.7, 1.5075538998935372, 1, , , 7.000000, 35.000000, 2.000000,3.000000,1.000000,6.000000,0.500000,1.000000
53, test, 3, probe, 9, 2, 3, 2, 3, 0.4, 0.6, left, 1, 0.3, 0.4, 0.6, 0.7, 0.8926957999356091, 0, 99.99978637695312, 1.899970999918878, 7.000000, 35.000000, 3.000000,3.000000,1.000000,6.000000,0.500000,1.000000
53, test, 3, no_probe, 10, 4, 2, 4, 2, 0.7, 0.4, left, 1, 0.3, 0.4, 0.6, 0.7, 0.5777666000649333, 1, , , 8.000000, 36.000000, 1.000000,2.000000,1.000000,6.000000,0.500000,1.000000
53, test, 3, probe, 11, 3, 2, 2, 3, 0.6, 0.4, right, 2, 0.3, 0.4, 0.6, 0.7, 2.171872599981725, 1, 99.99978637695312, 2.0166403998155147, 9.000000, 37.000000, 2.000000,2.000000,1.000000,6.000000,0.500000,1.000000
53, test, 3, no_probe, 12, 4, 1, 1, 4, 0.7, 0.3, right, 2, 0.3, 0.4, 0.6, 0.7, 0.6368019999936223, 1, , , 10.000000, 38.000000, 1.000000,2.000000,1.000000,6.000000,0.500000,1.000000
53, test, 3, probe, 13, 4, 1, 4, 1, 0.7, 0.3, left, 1, 0.3, 0.4, 0.6, 0.7, 0.38846229994669557, 0, 99.999755859375, 1.9333011999260634, 10.000000, 38.000000, 2.000000,2.000000,1.000000,6.000000,0.500000,1.000000
53, test, 3, no_probe, 14, 4, 3, 3, 4, 0.7, 0.6, right, 2, 0.3, 0.4, 0.6, 0.7, 0.35462359990924597, 0, , , 10.000000, 38.000000, 1.000000,2.000000,1.000000,6.000000,0.500000,1.000000
53, test, 3, probe, 15, 2, 3, 2, 3, 0.4, 0.6, left, 1, 0.3, 0.4, 0.6, 0.7, 2.5660906999837607, 1, 99.99972534179688, 2.2666272001806647, 11.000000, 39.000000, 2.000000,2.000000,1.000000,6.000000,0.500000,1.000000
53, test, 3, no_probe, 16, 4, 3, 4, 3, 0.7, 0.6, left, 1, 0.3, 0.4, 0.6, 0.7, 0.4780055999290198, 0, , , 11.000000, 39.000000, 1.000000,3.000000,1.000000,6.000000,0.500000,1.000000
53, test, 3, no_probe, 17, 1, 3, 3, 1, 0.3, 0.6, right, 2, 0.3, 0.4, 0.6, 0.7, 1.3869133999105543, 0, , , 11.000000, 39.000000, 2.000000,3.000000,1.000000,6.000000,0.500000,1.000000
53, test, 3, probe, 18, 3, 1, 3, 1, 0.6, 0.3, left, 1, 0.3, 0.4, 0.6, 0.7, 1.6897460999898612, 0, 99.99972534179688, 1.8833241001702845, 11.000000, 39.000000, 3.000000,3.000000,1.000000,6.000000,0.500000,1.000000
53, test, 3, no_probe, 19, 1, 3, 1, 3, 0.3, 0.6, left, 1, 0.3, 0.4, 0.6, 0.7, 1.1031810001004487, 0, , , 11.000000, 39.000000, 1.000000,3.000000,1.000000,6.000000,0.500000,1.000000
53, test, 3, no_probe, 20, 1, 3, 1, 3, 0.3, 0.6, left, 1, 0.3, 0.4, 0.6, 0.7, 0.8648142998572439, 0, , , 11.000000, 39.000000, 2.000000,3.000000,1.000000,6.000000,0.500000,1.000000
53, test, 3, probe, 21, 2, 1, 2, 1, 0.4, 0.3, left, 1, 0.3, 0.4, 0.6, 0.7, 0.8753319999668747, 0, 99.99966430664062, 1.6666654001455754, 11.000000, 39.000000, 3.000000,3.000000,1.000000,6.000000,0.500000,1.000000
53, test, 3, no_probe, 22, 4, 1, 1, 4, 0.7, 0.3, right, 2, 0.3, 0.4, 0.6, 0.7, 0.5460336001124233, 1, , , 12.000000, 40.000000, 1.000000,2.000000,1.000000,6.000000,0.500000,1.000000
53, test, 3, probe, 23, 2, 1, 2, 1, 0.4, 0.3, left, 1, 0.3, 0.4, 0.6, 0.7, 1.0602103001438081, 1, 99.99981689453125, 1.6499233001377434, 13.000000, 41.000000, 2.000000,2.000000,1.000000,6.000000,0.500000,1.000000
53, test, 3, no_probe, 24, 3, 1, 1, 3, 0.6, 0.3, right, 2, 0.3, 0.4, 0.6, 0.7, 1.5242168998811394, 1, , , 14.000000, 42.000000, 1.000000,3.000000,1.000000,6.000000,0.500000,1.000000
53, test, 3, no_probe, 25, 4, 2, 2, 4, 0.7, 0.4, right, 2, 0.3, 0.4, 0.6, 0.7, 0.534720900002867, 1, , , 15.000000, 43.000000, 2.000000,3.000000,1.000000,6.000000,0.500000,1.000000
53, test, 4, no_probe, 1, 2, 3, 2, 3, 0.4, 0.6, left, 1, 0.3, 0.4, 0.6, 0.7, 0.47957590012811124, 0, , , 0.000000, 43.000000, 1.000000,3.000000,1.000000,6.000000,0.500000,1.000000
53, test, 4, no_probe, 2, 1, 3, 1, 3, 0.3, 0.6, left, 1, 0.3, 0.4, 0.6, 0.7, 1.552004599943757, 0, , , 0.000000, 43.000000, 2.000000,3.000000,1.000000,6.000000,0.500000,1.000000
53, test, 4, probe, 3, 3, 2, 2, 3, 0.6, 0.4, right, 2, 0.3, 0.4, 0.6, 0.7, 0.3169241000432521, 1, 96.93844604492188, 2.1828377000056207, 1.000000, 44.000000, 3.000000,3.000000,1.000000,6.000000,0.500000,1.000000
53, test, 4, no_probe, 4, 1, 4, 4, 1, 0.3, 0.7, right, 2, 0.3, 0.4, 0.6, 0.7, 3.316791399847716, 0, , , 1.000000, 44.000000, 1.000000,2.000000,1.000000,6.000000,0.500000,1.000000
53, test, 4, probe, 5, 3, 4, 4, 3, 0.6, 0.7, right, 2, 0.3, 0.4, 0.6, 0.7, 0.6617565001361072, 1, 96.86117553710938, 2.0332916998304427, 2.000000, 45.000000, 2.000000,2.000000,1.000000,6.000000,0.500000,1.000000
53, test, 4, no_probe, 6, 3, 1, 1, 3, 0.6, 0.3, right, 2, 0.3, 0.4, 0.6, 0.7, 1.2439951999112964, 1, , , 3.000000, 46.000000, 1.000000,3.000000,1.000000,6.000000,0.500000,1.000000
53, test, 4, no_probe, 7, 2, 1, 2, 1, 0.4, 0.3, left, 1, 0.3, 0.4, 0.6, 0.7, 2.236453799996525, 1, , , 4.000000, 47.000000, 2.000000,3.000000,1.000000,6.000000,0.500000,1.000000
53, test, 4, probe, 8, 4, 1, 4, 1, 0.7, 0.3, left, 1, 0.3, 0.4, 0.6, 0.7, 0.5536942000035197, 1, 99.99966430664062, 1.7666410999372602, 5.000000, 48.000000, 3.000000,3.000000,1.000000,6.000000,0.500000,1.000000
53, test, 4, no_probe, 9, 3, 4, 4, 3, 0.6, 0.7, right, 2, 0.3, 0.4, 0.6, 0.7, 2.4930837000720203, 1, , , 6.000000, 49.000000, 1.000000,2.000000,1.000000,6.000000,0.500000,1.000000
53, test, 4, probe, 10, 4, 1, 1, 4, 0.7, 0.3, right, 2, 0.3, 0.4, 0.6, 0.7, 0.9663896998390555, 1, 98.71377563476562, 1.5166527000255883, 7.000000, 50.000000, 2.000000,2.000000,1.000000,6.000000,0.500000,1.000000
53, test, 4, no_probe, 11, 4, 1, 4, 1, 0.7, 0.3, left, 1, 0.3, 0.4, 0.6, 0.7, 1.1956059001386166, 1, , , 8.000000, 51.000000, 1.000000,3.000000,1.000000,6.000000,0.500000,1.000000
53, test, 4, no_probe, 12, 4, 2, 2, 4, 0.7, 0.4, right, 2, 0.3, 0.4, 0.6, 0.7, 0.9328879998065531, 1, , , 9.000000, 52.000000, 2.000000,3.000000,1.000000,6.000000,0.500000,1.000000
53, test, 4, probe, 13, 3, 1, 3, 1, 0.6, 0.3, left, 1, 0.3, 0.4, 0.6, 0.7, 1.4164527000393718, 0, 99.9561767578125, 1.6999713000841439, 9.000000, 52.000000, 3.000000,3.000000,1.000000,6.000000,0.500000,1.000000
53, test, 4, no_probe, 14, 4, 2, 2, 4, 0.7, 0.4, right, 2, 0.3, 0.4, 0.6, 0.7, 0.959828200051561, 0, , , 9.000000, 52.000000, 1.000000,2.000000,1.000000,6.000000,0.500000,1.000000
53, test, 4, probe, 15, 3, 2, 3, 2, 0.6, 0.4, left, 1, 0.3, 0.4, 0.6, 0.7, 0.6188308000564575, 0, 99.99978637695312, 1.616682599997148, 9.000000, 52.000000, 2.000000,2.000000,1.000000,6.000000,0.500000,1.000000
53, test, 4, no_probe, 16, 4, 3, 3, 4, 0.7, 0.6, right, 2, 0.3, 0.4, 0.6, 0.7, 1.1495327001903206, 1, , , 10.000000, 53.000000, 1.000000,3.000000,1.000000,6.000000,0.500000,1.000000
53, test, 4, no_probe, 17, 2, 3, 3, 2, 0.4, 0.6, right, 2, 0.3, 0.4, 0.6, 0.7, 0.6886328000109643, 1, , , 11.000000, 54.000000, 2.000000,3.000000,1.000000,6.000000,0.500000,1.000000
53, test, 4, probe, 18, 2, 1, 1, 2, 0.4, 0.3, right, 2, 0.3, 0.4, 0.6, 0.7, 0.5078108001034707, 0, 99.99978637695312, 1.8166466001421213, 11.000000, 54.000000, 3.000000,3.000000,1.000000,6.000000,0.500000,1.000000
53, test, 4, no_probe, 19, 4, 1, 1, 4, 0.7, 0.3, right, 2, 0.3, 0.4, 0.6, 0.7, 3.6220954000018537, 1, , , 12.000000, 55.000000, 1.000000,2.000000,1.000000,6.000000,0.500000,1.000000
53, test, 4, probe, 20, 4, 2, 4, 2, 0.7, 0.4, left, 1, 0.3, 0.4, 0.6, 0.7, 1.356300399871543, 1, 96.88119506835938, 1.7666543999221176, 13.000000, 56.000000, 2.000000,2.000000,1.000000,6.000000,0.500000,1.000000
53, test, 4, no_probe, 21, 3, 1, 1, 3, 0.6, 0.3, right, 2, 0.3, 0.4, 0.6, 0.7, 0.6637911999132484, 1, , , 14.000000, 57.000000, 1.000000,2.000000,1.000000,6.000000,0.500000,1.000000
53, test, 4, probe, 22, 2, 1, 2, 1, 0.4, 0.3, left, 1, 0.3, 0.4, 0.6, 0.7, 1.8329847001004964, 0, 99.99969482421875, 1.9666613000445068, 14.000000, 57.000000, 2.000000,2.000000,1.000000,6.000000,0.500000,1.000000
53, test, 4, no_probe, 23, 1, 2, 1, 2, 0.3, 0.4, left, 1, 0.3, 0.4, 0.6, 0.7, 2.126383100170642, 1, , , 15.000000, 58.000000, 1.000000,3.000000,1.000000,6.000000,0.500000,1.000000
53, test, 4, no_probe, 24, 3, 2, 2, 3, 0.6, 0.4, right, 2, 0.3, 0.4, 0.6, 0.7, 0.8746559999417514, 0, , , 15.000000, 58.000000, 2.000000,3.000000,1.000000,6.000000,0.500000,1.000000
53, test, 4, probe, 25, 4, 1, 4, 1, 0.7, 0.3, left, 1, 0.3, 0.4, 0.6, 0.7, 1.253034200053662, 1, 99.99966430664062, 1.9666756000369787, 16.000000, 59.000000, 3.000000,3.000000,1.000000,6.000000,0.500000,1.000000
53, test, 5, no_probe, 1, 3, 2, 3, 2, 0.6, 0.4, left, 1, 0.3, 0.4, 0.6, 0.7, 0.5141364999581128, 1, , , 1.000000, 60.000000, 1.000000,2.000000,1.000000,6.000000,0.500000,1.000000
53, test, 5, probe, 2, 3, 1, 3, 1, 0.6, 0.3, left, 1, 0.3, 0.4, 0.6, 0.7, 0.5323637998662889, 1, 96.6328125, 2.433322299970314, 2.000000, 61.000000, 2.000000,2.000000,1.000000,6.000000,0.500000,1.000000
53, test, 5, no_probe, 3, 2, 4, 2, 4, 0.4, 0.7, left, 1, 0.3, 0.4, 0.6, 0.7, 4.604155900189653, 0, , , 2.000000, 61.000000, 1.000000,3.000000,1.000000,6.000000,0.500000,1.000000
53, test, 5, no_probe, 4, 4, 3, 4, 3, 0.7, 0.6, left, 1, 0.3, 0.4, 0.6, 0.7, 0.427048800047487, 1, , , 3.000000, 62.000000, 2.000000,3.000000,1.000000,6.000000,0.500000,1.000000
53, test, 5, probe, 5, 4, 3, 4, 3, 0.7, 0.6, left, 1, 0.3, 0.4, 0.6, 0.7, 0.358086199965328, 0, 97.37802124023438, 1.9833235000260174, 3.000000, 62.000000, 3.000000,3.000000,1.000000,6.000000,0.500000,1.000000
53, test, 5, no_probe, 6, 3, 4, 3, 4, 0.6, 0.7, left, 1, 0.3, 0.4, 0.6, 0.7, 0.47269810014404356, 1, , , 4.000000, 63.000000, 1.000000,3.000000,1.000000,6.000000,0.500000,1.000000
53, test, 5, no_probe, 7, 3, 1, 1, 3, 0.6, 0.3, right, 2, 0.3, 0.4, 0.6, 0.7, 0.6443832998629659, 1, , , 5.000000, 64.000000, 2.000000,3.000000,1.000000,6.000000,0.500000,1.000000
53, test, 5, probe, 8, 4, 2, 2, 4, 0.7, 0.4, right, 2, 0.3, 0.4, 0.6, 0.7, 1.215408799936995, 1, 99.99966430664062, 1.8666493000928313, 6.000000, 65.000000, 3.000000,3.000000,1.000000,6.000000,0.500000,1.000000
53, test, 5, no_probe, 9, 1, 4, 4, 1, 0.3, 0.7, right, 2, 0.3, 0.4, 0.6, 0.7, 1.2288586997892708, 0, , , 6.000000, 65.000000, 1.000000,3.000000,1.000000,6.000000,0.500000,1.000000
53, test, 5, no_probe, 10, 3, 1, 1, 3, 0.6, 0.3, right, 2, 0.3, 0.4, 0.6, 0.7, 0.8448121000546962, 0, , , 6.000000, 65.000000, 2.000000,3.000000,1.000000,6.000000,0.500000,1.000000
53, test, 5, probe, 11, 3, 1, 1, 3, 0.6, 0.3, right, 2, 0.3, 0.4, 0.6, 0.7, 0.4804800997953862, 1, 99.99954223632812, 1.7832879000343382, 7.000000, 66.000000, 3.000000,3.000000,1.000000,6.000000,0.500000,1.000000
53, test, 5, no_probe, 12, 3, 2, 2, 3, 0.6, 0.4, right, 2, 0.3, 0.4, 0.6, 0.7, 1.2141728000715375, 1, , , 8.000000, 67.000000, 1.000000,2.000000,1.000000,6.000000,0.500000,1.000000
53, test, 5, probe, 13, 4, 1, 1, 4, 0.7, 0.3, right, 2, 0.3, 0.4, 0.6, 0.7, 2.2093249999452382, 1, 91.02557373046875, 2.6666193001437932, 9.000000, 68.000000, 2.000000,2.000000,1.000000,6.000000,0.500000,1.000000
53, test, 5, no_probe, 14, 1, 2, 1, 2, 0.3, 0.4, left, 1, 0.3, 0.4, 0.6, 0.7, 1.2958983997814357, 0, , , 9.000000, 68.000000, 1.000000,3.000000,1.000000,6.000000,0.500000,1.000000
53, test, 5, no_probe, 15, 3, 1, 3, 1, 0.6, 0.3, left, 1, 0.3, 0.4, 0.6, 0.7, 0.8239122000522912, 1, , , 10.000000, 69.000000, 2.000000,3.000000,1.000000,6.000000,0.500000,1.000000
53, test, 5, probe, 16, 3, 1, 3, 1, 0.6, 0.3, left, 1, 0.3, 0.4, 0.6, 0.7, 0.2766423998400569, 0, 84.19830322265625, 2.3832580000162125, 10.000000, 69.000000, 3.000000,3.000000,1.000000,6.000000,0.500000,1.000000
53, test, 5, no_probe, 17, 4, 1, 4, 1, 0.7, 0.3, left, 1, 0.3, 0.4, 0.6, 0.7, 1.839712900109589, 0, , , 10.000000, 69.000000, 1.000000,3.000000,1.000000,6.000000,0.500000,1.000000
53, test, 5, no_probe, 18, 3, 4, 4, 3, 0.6, 0.7, right, 2, 0.3, 0.4, 0.6, 0.7, 0.6400645000394434, 1, , , 11.000000, 70.000000, 2.000000,3.000000,1.000000,6.000000,0.500000,1.000000
53, test, 5, probe, 19, 1, 2, 2, 1, 0.3, 0.4, right, 2, 0.3, 0.4, 0.6, 0.7, 0.9748663997743279, 0, 92.4383544921875, 2.316613000119105, 11.000000, 70.000000, 3.000000,3.000000,1.000000,6.000000,0.500000,1.000000
53, test, 5, no_probe, 20, 3, 1, 3, 1, 0.6, 0.3, left, 1, 0.3, 0.4, 0.6, 0.7, 1.3969948999583721, 1, , , 12.000000, 71.000000, 1.000000,2.000000,1.000000,6.000000,0.500000,1.000000
53, test, 5, probe, 21, 3, 1, 3, 1, 0.6, 0.3, left, 1, 0.3, 0.4, 0.6, 0.7, 0.3450001999735832, 0, 93.94659423828125, 1.7499543000012636, 12.000000, 71.000000, 2.000000,2.000000,1.000000,6.000000,0.500000,1.000000
53, test, 5, no_probe, 22, 2, 1, 2, 1, 0.4, 0.3, left, 1, 0.3, 0.4, 0.6, 0.7, 0.9730063998140395, 1, , , 13.000000, 72.000000, 1.000000,2.000000,1.000000,6.000000,0.500000,1.000000
53, test, 5, probe, 23, 2, 1, 1, 2, 0.4, 0.3, right, 2, 0.3, 0.4, 0.6, 0.7, 0.5276945999357849, 0, 97.40740966796875, 2.1999486999120563, 13.000000, 72.000000, 2.000000,2.000000,1.000000,6.000000,0.500000,1.000000
53, test, 5, no_probe, 24, 3, 2, 3, 2, 0.6, 0.4, left, 1, 0.3, 0.4, 0.6, 0.7, 0.8428434000816196, 1, , , 14.000000, 73.000000, 1.000000,2.000000,1.000000,6.000000,0.500000,1.000000
53, test, 5, probe, 25, 4, 1, 1, 4, 0.7, 0.3, right, 2, 0.3, 0.4, 0.6, 0.7, 0.7189240998122841, 1, 97.9915771484375, 2.299960699863732, 15.000000, 74.000000, 2.000000,2.000000,1.000000,6.000000,0.500000,1.000000
53, test, 6, no_probe, 1, 3, 4, 4, 3, 0.6, 0.7, right, 2, 0.3, 0.4, 0.6, 0.7, 0.4744341999758035, 1, , , 1.000000, 75.000000, 1.000000,3.000000,1.000000,6.000000,0.500000,1.000000
53, test, 6, no_probe, 2, 3, 4, 4, 3, 0.6, 0.7, right, 2, 0.3, 0.4, 0.6, 0.7, 0.3056302999611944, 1, , , 2.000000, 76.000000, 2.000000,3.000000,1.000000,6.000000,0.500000,1.000000
53, test, 6, probe, 3, 3, 2, 3, 2, 0.6, 0.4, left, 1, 0.3, 0.4, 0.6, 0.7, 0.32682279986329377, 0, 99.99978637695312, 2.4328792998567224, 2.000000, 76.000000, 3.000000,3.000000,1.000000,6.000000,0.500000,1.000000
53, test, 6, no_probe, 4, 2, 4, 4, 2, 0.4, 0.7, right, 2, 0.3, 0.4, 0.6, 0.7, 0.9541385998018086, 1, , , 3.000000, 77.000000, 1.000000,2.000000,1.000000,6.000000,0.500000,1.000000
53, test, 6, probe, 5, 3, 4, 3, 4, 0.6, 0.7, left, 1, 0.3, 0.4, 0.6, 0.7, 0.7614427001681179, 0, 99.9996337890625, 2.4332705000415444, 3.000000, 77.000000, 2.000000,2.000000,1.000000,6.000000,0.500000,1.000000
53, test, 6, no_probe, 6, 2, 3, 2, 3, 0.4, 0.6, left, 1, 0.3, 0.4, 0.6, 0.7, 0.3319709000643343, 1, , , 4.000000, 78.000000, 1.000000,3.000000,1.000000,6.000000,0.500000,1.000000
53, test, 6, no_probe, 7, 3, 2, 3, 2, 0.6, 0.4, left, 1, 0.3, 0.4, 0.6, 0.7, 0.33186700008809566, 0, , , 4.000000, 78.000000, 2.000000,3.000000,1.000000,6.000000,0.500000,1.000000
53, test, 6, probe, 8, 2, 4, 2, 4, 0.4, 0.7, left, 1, 0.3, 0.4, 0.6, 0.7, 0.44465479999780655, 1, 99.94216918945312, 1.6499518000055104, 5.000000, 79.000000, 3.000000,3.000000,1.000000,6.000000,0.500000,1.000000
53, test, 6, no_probe, 9, 2, 1, 1, 2, 0.4, 0.3, right, 2, 0.3, 0.4, 0.6, 0.7, 0.49394330009818077, 0, , , 5.000000, 79.000000, 1.000000,3.000000,1.000000,6.000000,0.500000,1.000000
53, test, 6, no_probe, 10, 2, 4, 2, 4, 0.4, 0.7, left, 1, 0.3, 0.4, 0.6, 0.7, 0.543701299931854, 0, , , 5.000000, 79.000000, 2.000000,3.000000,1.000000,6.000000,0.500000,1.000000
53, test, 6, probe, 11, 1, 2, 2, 1, 0.3, 0.4, right, 2, 0.3, 0.4, 0.6, 0.7, 0.6365517999511212, 0, 92.40371704101562, 1.8499878000002354, 5.000000, 79.000000, 3.000000,3.000000,1.000000,6.000000,0.500000,1.000000
53, test, 6, no_probe, 12, 3, 4, 4, 3, 0.6, 0.7, right, 2, 0.3, 0.4, 0.6, 0.7, 0.6362092001363635, 0, , , 5.000000, 79.000000, 1.000000,3.000000,1.000000,6.000000,0.500000,1.000000
53, test, 6, no_probe, 13, 3, 4, 3, 4, 0.6, 0.7, left, 1, 0.3, 0.4, 0.6, 0.7, 0.6407085000537336, 1, , , 6.000000, 80.000000, 2.000000,3.000000,1.000000,6.000000,0.500000,1.000000
53, test, 6, probe, 14, 2, 4, 4, 2, 0.4, 0.7, right, 2, 0.3, 0.4, 0.6, 0.7, 1.4809275998268276, 0, 93.8558349609375, 1.7500034999102354, 6.000000, 80.000000, 3.000000,3.000000,1.000000,6.000000,0.500000,1.000000
53, test, 6, no_probe, 15, 3, 2, 3, 2, 0.6, 0.4, left, 1, 0.3, 0.4, 0.6, 0.7, 0.6710743000730872, 1, , , 7.000000, 81.000000, 1.000000,2.000000,1.000000,6.000000,0.500000,1.000000
53, test, 6, probe, 16, 3, 2, 2, 3, 0.6, 0.4, right, 2, 0.3, 0.4, 0.6, 0.7, 0.2744245999492705, 1, 96.87387084960938, 1.7999639001209289, 8.000000, 82.000000, 2.000000,2.000000,1.000000,6.000000,0.500000,1.000000
53, test, 6, no_probe, 17, 3, 2, 3, 2, 0.6, 0.4, left, 1, 0.3, 0.4, 0.6, 0.7, 0.9026729001197964, 1, , , 9.000000, 83.000000, 1.000000,2.000000,1.000000,6.000000,0.500000,1.000000
53, test, 6, probe, 18, 3, 4, 3, 4, 0.6, 0.7, left, 1, 0.3, 0.4, 0.6, 0.7, 0.6203185000922531, 0, 95.2998046875, 2.1999460000079125, 9.000000, 83.000000, 2.000000,2.000000,1.000000,6.000000,0.500000,1.000000
53, test, 6, no_probe, 19, 1, 4, 1, 4, 0.3, 0.7, left, 1, 0.3, 0.4, 0.6, 0.7, 1.1244896999560297, 0, , , 9.000000, 83.000000, 1.000000,2.000000,1.000000,6.000000,0.500000,1.000000
53, test, 6, probe, 20, 3, 1, 3, 1, 0.6, 0.3, left, 1, 0.3, 0.4, 0.6, 0.7, 0.8487378000281751, 0, 91.20053100585938, 1.9332771999761462, 9.000000, 83.000000, 2.000000,2.000000,1.000000,6.000000,0.500000,1.000000
53, test, 6, no_probe, 21, 2, 1, 2, 1, 0.4, 0.3, left, 1, 0.3, 0.4, 0.6, 0.7, 0.6089137999806553, 0, , , 9.000000, 83.000000, 1.000000,2.000000,1.000000,6.000000,0.500000,1.000000
53, test, 6, probe, 22, 2, 4, 4, 2, 0.4, 0.7, right, 2, 0.3, 0.4, 0.6, 0.7, 0.5837361000012606, 0, 94.39349365234375, 2.150015600025654, 9.000000, 83.000000, 2.000000,2.000000,1.000000,6.000000,0.500000,1.000000
53, test, 6, no_probe, 23, 3, 1, 3, 1, 0.6, 0.3, left, 1, 0.3, 0.4, 0.6, 0.7, 0.8728246001992375, 0, , , 9.000000, 83.000000, 1.000000,3.000000,1.000000,6.000000,0.500000,1.000000
53, test, 6, no_probe, 24, 1, 2, 1, 2, 0.3, 0.4, left, 1, 0.3, 0.4, 0.6, 0.7, 0.3286230000667274, 0, , , 9.000000, 83.000000, 2.000000,3.000000,1.000000,6.000000,0.500000,1.000000
53, test, 6, probe, 25, 1, 3, 1, 3, 0.3, 0.6, left, 1, 0.3, 0.4, 0.6, 0.7, 0.4204203002154827, 1, 94.75930786132812, 1.6999760000035167, 10.000000, 84.000000, 3.000000,3.000000,1.000000,6.000000,0.500000,1.000000
53, test, 7, no_probe, 1, 4, 3, 4, 3, 0.7, 0.6, left, 1, 0.3, 0.4, 0.6, 0.7, 0.3926993999630213, 1, , , 1.000000, 85.000000, 1.000000,3.000000,1.000000,6.000000,0.500000,1.000000
53, test, 7, no_probe, 2, 3, 2, 2, 3, 0.6, 0.4, right, 2, 0.3, 0.4, 0.6, 0.7, 1.5296713998541236, 0, , , 1.000000, 85.000000, 2.000000,3.000000,1.000000,6.000000,0.500000,1.000000
53, test, 7, probe, 3, 2, 1, 1, 2, 0.4, 0.3, right, 2, 0.3, 0.4, 0.6, 0.7, 0.465907400008291, 0, 83.63949584960938, 2.1329889001790434, 1.000000, 85.000000, 3.000000,3.000000,1.000000,6.000000,0.500000,1.000000
53, test, 7, no_probe, 4, 4, 2, 2, 4, 0.7, 0.4, right, 2, 0.3, 0.4, 0.6, 0.7, 0.6030007998924702, 1, , , 2.000000, 86.000000, 1.000000,3.000000,1.000000,6.000000,0.500000,1.000000
53, test, 7, no_probe, 5, 2, 3, 3, 2, 0.4, 0.6, right, 2, 0.3, 0.4, 0.6, 0.7, 1.1309148999862373, 0, , , 2.000000, 86.000000, 2.000000,3.000000,1.000000,6.000000,0.500000,1.000000
53, test, 7, probe, 6, 3, 1, 3, 1, 0.6, 0.3, left, 1, 0.3, 0.4, 0.6, 0.7, 0.5038040999788791, 0, 92.37649536132812, 1.4666470000520349, 2.000000, 86.000000, 3.000000,3.000000,1.000000,6.000000,0.500000,1.000000
53, test, 7, no_probe, 7, 1, 2, 2, 1, 0.3, 0.4, right, 2, 0.3, 0.4, 0.6, 0.7, 0.5375377999152988, 1, , , 3.000000, 87.000000, 1.000000,3.000000,1.000000,6.000000,0.500000,1.000000
53, test, 7, no_probe, 8, 1, 2, 1, 2, 0.3, 0.4, left, 1, 0.3, 0.4, 0.6, 0.7, 0.7655567000620067, 0, , , 3.000000, 87.000000, 2.000000,3.000000,1.000000,6.000000,0.500000,1.000000
53, test, 7, probe, 9, 4, 2, 2, 4, 0.7, 0.4, right, 2, 0.3, 0.4, 0.6, 0.7, 1.0167135000228882, 1, 93.84188842773438, 2.8999620999675244, 4.000000, 88.000000, 3.000000,3.000000,1.000000,6.000000,0.500000,1.000000
53, test, 7, no_probe, 10, 4, 1, 1, 4, 0.7, 0.3, right, 2, 0.3, 0.4, 0.6, 0.7, 0.55589359998703, 0, , , 4.000000, 88.000000, 1.000000,2.000000,1.000000,6.000000,0.500000,1.000000
53, test, 7, probe, 11, 1, 3, 1, 3, 0.3, 0.6, left, 1, 0.3, 0.4, 0.6, 0.7, 1.0475405000615865, 0, 95.75485229492188, 1.7999672000296414, 4.000000, 88.000000, 2.000000,2.000000,1.000000,6.000000,0.500000,1.000000
53, test, 7, no_probe, 12, 1, 2, 1, 2, 0.3, 0.4, left, 1, 0.3, 0.4, 0.6, 0.7, 0.328161200042814, 0, , , 4.000000, 88.000000, 1.000000,2.000000,1.000000,6.000000,0.500000,1.000000
53, test, 7, probe, 13, 2, 1, 1, 2, 0.4, 0.3, right, 2, 0.3, 0.4, 0.6, 0.7, 0.3922919000033289, 0, 98.29647827148438, 1.5166147998534143, 4.000000, 88.000000, 2.000000,2.000000,1.000000,6.000000,0.500000,1.000000
53, test, 7, no_probe, 14, 2, 4, 2, 4, 0.4, 0.7, left, 1, 0.3, 0.4, 0.6, 0.7, 0.36431819992139935, 0, , , 4.000000, 88.000000, 1.000000,3.000000,1.000000,6.000000,0.500000,1.000000
53, test, 7, no_probe, 15, 2, 4, 2, 4, 0.4, 0.7, left, 1, 0.3, 0.4, 0.6, 0.7, 0.40354719990864396, 1, , , 5.000000, 89.000000, 2.000000,3.000000,1.000000,6.000000,0.500000,1.000000
53, test, 7, probe, 16, 3, 4, 4, 3, 0.6, 0.7, right, 2, 0.3, 0.4, 0.6, 0.7, 0.7684349999763072, 1, 98.4349365234375, 1.8166187999304384, 6.000000, 90.000000, 3.000000,3.000000,1.000000,6.000000,0.500000,1.000000
53, test, 7, no_probe, 17, 3, 2, 3, 2, 0.6, 0.4, left, 1, 0.3, 0.4, 0.6, 0.7, 0.4015049999579787, 1, , , 7.000000, 91.000000, 1.000000,3.000000,1.000000,6.000000,0.500000,1.000000
53, test, 7, no_probe, 18, 1, 3, 1, 3, 0.3, 0.6, left, 1, 0.3, 0.4, 0.6, 0.7, 0.27865369990468025, 0, , , 7.000000, 91.000000, 2.000000,3.000000,1.000000,6.000000,0.500000,1.000000
53, test, 7, probe, 19, 1, 2, 2, 1, 0.3, 0.4, right, 2, 0.3, 0.4, 0.6, 0.7, 0.7410716000013053, 0, 95.85757446289062, 1.4833975001238286, 7.000000, 91.000000, 3.000000,3.000000,1.000000,6.000000,0.500000,1.000000
53, test, 7, no_probe, 20, 3, 4, 3, 4, 0.6, 0.7, left, 1, 0.3, 0.4, 0.6, 0.7, 0.2882703000213951, 0, , , 7.000000, 91.000000, 1.000000,2.000000,1.000000,6.000000,0.500000,1.000000
53, test, 7, probe, 21, 4, 2, 4, 2, 0.7, 0.4, left, 1, 0.3, 0.4, 0.6, 0.7, 0.29908089991658926, 0, 89.7469482421875, 1.7499703001230955, 7.000000, 91.000000, 2.000000,2.000000,1.000000,6.000000,0.500000,1.000000
53, test, 7, no_probe, 22, 3, 1, 1, 3, 0.6, 0.3, right, 2, 0.3, 0.4, 0.6, 0.7, 0.6286647000815719, 1, , , 8.000000, 92.000000, 1.000000,3.000000,1.000000,6.000000,0.500000,1.000000
53, test, 7, no_probe, 23, 1, 2, 2, 1, 0.3, 0.4, right, 2, 0.3, 0.4, 0.6, 0.7, 0.7638964001089334, 1, , , 9.000000, 93.000000, 2.000000,3.000000,1.000000,6.000000,0.500000,1.000000
53, test, 7, probe, 24, 3, 4, 4, 3, 0.6, 0.7, right, 2, 0.3, 0.4, 0.6, 0.7, 0.45642790012061596, 1, 97.24172973632812, 1.7833056999370456, 10.000000, 94.000000, 3.000000,3.000000,1.000000,6.000000,0.500000,1.000000
53, test, 7, no_probe, 25, 4, 1, 1, 4, 0.7, 0.3, right, 2, 0.3, 0.4, 0.6, 0.7, 0.8670626999810338, 1, , , 11.000000, 95.000000, 1.000000,2.000000,1.000000,6.000000,0.500000,1.000000
53, test, 8, no_probe, 1, 4, 1, 1, 4, 0.7, 0.3, right, 2, 0.3, 0.4, 0.6, 0.7, 0.4749304000288248, 0, , , 0.000000, 95.000000, 1.000000,3.000000,1.000000,6.000000,0.500000,1.000000
53, test, 8, no_probe, 2, 4, 2, 2, 4, 0.7, 0.4, right, 2, 0.3, 0.4, 0.6, 0.7, 0.41286129993386567, 0, , , 0.000000, 95.000000, 2.000000,3.000000,1.000000,6.000000,0.500000,1.000000
53, test, 8, probe, 3, 2, 1, 2, 1, 0.4, 0.3, left, 1, 0.3, 0.4, 0.6, 0.7, 0.3941861998755485, 0, 91.14495849609375, 2.0163290000054985, 0.000000, 95.000000, 3.000000,3.000000,1.000000,6.000000,0.500000,1.000000
53, test, 8, no_probe, 4, 2, 1, 1, 2, 0.4, 0.3, right, 2, 0.3, 0.4, 0.6, 0.7, 0.473952499916777, 1, , , 1.000000, 96.000000, 1.000000,3.000000,1.000000,6.000000,0.500000,1.000000
53, test, 8, no_probe, 5, 2, 3, 2, 3, 0.4, 0.6, left, 1, 0.3, 0.4, 0.6, 0.7, 0.2660648999735713, 1, , , 2.000000, 97.000000, 2.000000,3.000000,1.000000,6.000000,0.500000,1.000000
53, test, 8, probe, 6, 3, 4, 4, 3, 0.6, 0.7, right, 2, 0.3, 0.4, 0.6, 0.7, 0.8404564000666142, 0, 92.07757568359375, 1.9000007000286132, 2.000000, 97.000000, 3.000000,3.000000,1.000000,6.000000,0.500000,1.000000
53, test, 8, no_probe, 7, 1, 3, 3, 1, 0.3, 0.6, right, 2, 0.3, 0.4, 0.6, 0.7, 1.5910070999525487, 0, , , 2.000000, 97.000000, 1.000000,3.000000,1.000000,6.000000,0.500000,1.000000
53, test, 8, no_probe, 8, 2, 1, 1, 2, 0.4, 0.3, right, 2, 0.3, 0.4, 0.6, 0.7, 0.42541010002605617, 1, , , 3.000000, 98.000000, 2.000000,3.000000,1.000000,6.000000,0.500000,1.000000
53, test, 8, probe, 9, 4, 1, 1, 4, 0.7, 0.3, right, 2, 0.3, 0.4, 0.6, 0.7, 1.07813709997572, 1, 95.47311401367188, 1.7999471998773515, 4.000000, 99.000000, 3.000000,3.000000,1.000000,6.000000,0.500000,1.000000
53, test, 8, no_probe, 10, 2, 3, 2, 3, 0.4, 0.6, left, 1, 0.3, 0.4, 0.6, 0.7, 0.4305296998936683, 1, , , 5.000000, 100.000000, 1.000000,3.000000,1.000000,6.000000,0.500000,1.000000
53, test, 8, no_probe, 11, 2, 3, 2, 3, 0.4, 0.6, left, 1, 0.3, 0.4, 0.6, 0.7, 0.4023444999475032, 1, , , 6.000000, 101.000000, 2.000000,3.000000,1.000000,6.000000,0.500000,1.000000
53, test, 8, probe, 12, 2, 1, 2, 1, 0.4, 0.3, left, 1, 0.3, 0.4, 0.6, 0.7, 0.35983570013195276, 0, 94.8719482421875, 1.8499348999466747, 6.000000, 101.000000, 3.000000,3.000000,1.000000,6.000000,0.500000,1.000000
53, test, 8, no_probe, 13, 2, 1, 1, 2, 0.4, 0.3, right, 2, 0.3, 0.4, 0.6, 0.7, 0.3593565998598933, 1, , , 7.000000, 102.000000, 1.000000,2.000000,1.000000,6.000000,0.500000,1.000000
53, test, 8, probe, 14, 2, 1, 1, 2, 0.4, 0.3, right, 2, 0.3, 0.4, 0.6, 0.7, 0.5343020001892, 1, 96.950927734375, 1.9666075999848545, 8.000000, 103.000000, 2.000000,2.000000,1.000000,6.000000,0.500000,1.000000
53, test, 8, no_probe, 15, 3, 1, 1, 3, 0.6, 0.3, right, 2, 0.3, 0.4, 0.6, 0.7, 2.10621519992128, 1, , , 9.000000, 104.000000, 1.000000,3.000000,1.000000,6.000000,0.500000,1.000000
53, test, 8, no_probe, 16, 2, 1, 1, 2, 0.4, 0.3, right, 2, 0.3, 0.4, 0.6, 0.7, 0.49259839998558164, 0, , , 9.000000, 104.000000, 2.000000,3.000000,1.000000,6.000000,0.500000,1.000000
53, test, 8, probe, 17, 2, 3, 2, 3, 0.4, 0.6, left, 1, 0.3, 0.4, 0.6, 0.7, 0.32311980007216334, 1, 93.88934326171875, 2.0999839000869542, 10.000000, 105.000000, 3.000000,3.000000,1.000000,6.000000,0.500000,1.000000
53, test, 8, no_probe, 18, 2, 1, 1, 2, 0.4, 0.3, right, 2, 0.3, 0.4, 0.6, 0.7, 0.39318030001595616, 0, , , 10.000000, 105.000000, 1.000000,3.000000,1.000000,6.000000,0.500000,1.000000
53, test, 8, no_probe, 19, 4, 3, 3, 4, 0.7, 0.6, right, 2, 0.3, 0.4, 0.6, 0.7, 0.6231159998569638, 1, , , 11.000000, 106.000000, 2.000000,3.000000,1.000000,6.000000,0.500000,1.000000
53, test, 8, probe, 20, 2, 3, 2, 3, 0.4, 0.6, left, 1, 0.3, 0.4, 0.6, 0.7, 0.49726540013216436, 0, 99.38302612304688, 1.6999893998727202, 11.000000, 106.000000, 3.000000,3.000000,1.000000,6.000000,0.500000,1.000000
53, test, 8, no_probe, 21, 1, 3, 1, 3, 0.3, 0.6, left, 1, 0.3, 0.4, 0.6, 0.7, 1.335802200017497, 0, , , 11.000000, 106.000000, 1.000000,3.000000,1.000000,6.000000,0.500000,1.000000
53, test, 8, no_probe, 22, 4, 2, 2, 4, 0.7, 0.4, right, 2, 0.3, 0.4, 0.6, 0.7, 3.128454799996689, 1, , , 12.000000, 107.000000, 2.000000,3.000000,1.000000,6.000000,0.500000,1.000000
53, test, 8, probe, 23, 2, 4, 4, 2, 0.4, 0.7, right, 2, 0.3, 0.4, 0.6, 0.7, 1.3293922999873757, 0, 96.62420654296875, 1.633319899905473, 12.000000, 107.000000, 3.000000,3.000000,1.000000,6.000000,0.500000,1.000000
53, test, 8, no_probe, 24, 2, 1, 2, 1, 0.4, 0.3, left, 1, 0.3, 0.4, 0.6, 0.7, 0.42582660005427897, 0, , , 12.000000, 107.000000, 1.000000,2.000000,1.000000,6.000000,0.500000,1.000000
53, test, 8, probe, 25, 4, 2, 2, 4, 0.7, 0.4, right, 2, 0.3, 0.4, 0.6, 0.7, 0.6698805000633001, 1, 92.02154541015625, 2.183279399992898, 13.000000, 108.000000, 2.000000,2.000000,1.000000,6.000000,0.500000,1.000000
