subject, block_type, block, thought probe, trial, chosen, unchosen, offer_left_image, offer_right_image, exp_value_chosen, exp_value_unchosen, choice_location, choice_key, exp_value1, exp_value2, exp_value3, exp_value4, RT, reward, vas, RT_vas, coins_per_block, coins_per_task, count_to_prob, ntrial_to_prob, ITI_duration,RT_deadline,choice_feedback_duration,outcome_duration
62, test, 1, no_probe, 1, 2, 3, 3, 2, 0.4, 0.6, right, 2, 0.3, 0.4, 0.6, 0.7, 0.8888522000052035, 0, , , 0.000000, 0.000000, 1.000000,3.000000,1.000000,6.000000,0.500000,1.000000
62, test, 1, no_probe, 2, 1, 2, 1, 2, 0.3, 0.4, left, 1, 0.3, 0.4, 0.6, 0.7, 1.3976136999990558, 1, , , 1.000000, 1.000000, 2.000000,3.000000,1.000000,6.000000,0.500000,1.000000
62, test, 1, probe, 3, 1, 4, 4, 1, 0.3, 0.7, right, 2, 0.3, 0.4, 0.6, 0.7, 0.99239949999901, 1, 99.99761962890625, 4.8997658000007505, 2.000000, 2.000000, 3.000000,3.000000,1.000000,6.000000,0.500000,1.000000
62, test, 1, no_probe, 4, 3, 4, 3, 4, 0.6, 0.7, left, 1, 0.3, 0.4, 0.6, 0.7, 0.8677021999901626, 0, , , 2.000000, 2.000000, 1.000000,2.000000,1.000000,6.000000,0.500000,1.000000
62, test, 1, probe, 5, 1, 3, 3, 1, 0.3, 0.6, right, 2, 0.3, 0.4, 0.6, 0.7, 0.8259639000025345, 0, 99.99795532226562, 4.483033800002886, 2.000000, 2.000000, 2.000000,2.000000,1.000000,6.000000,0.500000,1.000000
62, test, 1, no_probe, 6, 3, 1, 1, 3, 0.6, 0.3, right, 2, 0.3, 0.4, 0.6, 0.7, 1.9261429000034695, 1, , , 3.000000, 3.000000, 1.000000,2.000000,1.000000,6.000000,0.500000,1.000000
62, test, 1, no_probe, 1, 3, 4, 4, 3, 0.6, 0.7, right, 2, 0.3, 0.4, 0.6, 0.7, 0.6758483000012347, 1, , , 1.000000, 4.000000, 1.000000,3.000000,1.000000,6.000000,0.500000,1.000000
62, test, 1, no_probe, 2, 2, 1, 1, 2, 0.4, 0.3, right, 2, 0.3, 0.4, 0.6, 0.7, 1.675668099996983, 0, , , 1.000000, 4.000000, 2.000000,3.000000,1.000000,6.000000,0.500000,1.000000
62, test, 1, probe, 3, 3, 1, 1, 3, 0.6, 0.3, right, 2, 0.3, 0.4, 0.6, 0.7, 1.7605009999970207, 1, 99.99749755859375, 3.6829281999962404, 2.000000, 5.000000, 3.000000,3.000000,1.000000,6.000000,0.500000,1.000000
62, test, 1, no_probe, 4, 4, 2, 4, 2, 0.7, 0.4, left, 1, 0.3, 0.4, 0.6, 0.7, 4.460765600000741, 1, , , 3.000000, 6.000000, 1.000000,3.000000,1.000000,6.000000,0.500000,1.000000
62, test, 1, no_probe, 5, 4, 2, 2, 4, 0.7, 0.4, right, 2, 0.3, 0.4, 0.6, 0.7, 1.2160581000061939, 1, , , 4.000000, 7.000000, 2.000000,3.000000,1.000000,6.000000,0.500000,1.000000
62, test, 1, probe, 6, 1, 4, 1, 4, 0.3, 0.7, left, 1, 0.3, 0.4, 0.6, 0.7, 4.264341800007969, 0, 99.99798583984375, 4.4999816000054125, 4.000000, 7.000000, 3.000000,3.000000,1.000000,6.000000,0.500000,1.000000
62, test, 1, no_probe, 7, 3, 2, 3, 2, 0.6, 0.4, left, 1, 0.3, 0.4, 0.6, 0.7, 1.6225030999921728, 0, , , 4.000000, 7.000000, 1.000000,3.000000,1.000000,6.000000,0.500000,1.000000
62, test, 1, no_probe, 8, 4, 3, 3, 4, 0.7, 0.6, right, 2, 0.3, 0.4, 0.6, 0.7, 1.1387357000057818, 1, , , 5.000000, 8.000000, 2.000000,3.000000,1.000000,6.000000,0.500000,1.000000
62, test, 1, probe, 9, 1, 2, 2, 1, 0.3, 0.4, right, 2, 0.3, 0.4, 0.6, 0.7, 1.4576489000028232, 0, 99.9989013671875, 2.8999626000004355, 5.000000, 8.000000, 3.000000,3.000000,1.000000,6.000000,0.500000,1.000000
62, test, 1, no_probe, 10, 4, 3, 3, 4, 0.7, 0.6, right, 2, 0.3, 0.4, 0.6, 0.7, 2.5918958999973256, 1, , , 6.000000, 9.000000, 1.000000,3.000000,1.000000,6.000000,0.500000,1.000000
62, test, 1, no_probe, 11, 4, 1, 4, 1, 0.7, 0.3, left, 1, 0.3, 0.4, 0.6, 0.7, 2.805860300009954, 1, , , 7.000000, 10.000000, 2.000000,3.000000,1.000000,6.000000,0.500000,1.000000
62, test, 1, probe, 12, 1, 2, 2, 1, 0.3, 0.4, right, 2, 0.3, 0.4, 0.6, 0.7, 3.2511510999902384, 0, 99.997802734375, 3.5666362999909325, 7.000000, 10.000000, 3.000000,3.000000,1.000000,6.000000,0.500000,1.000000
62, test, 1, no_probe, 13, 4, 1, 1, 4, 0.7, 0.3, right, 2, 0.3, 0.4, 0.6, 0.7, 1.3510275000007823, 1, , , 8.000000, 11.000000, 1.000000,2.000000,1.000000,6.000000,0.500000,1.000000
62, test, 1, probe, 14, 3, 1, 3, 1, 0.6, 0.3, left, 1, 0.3, 0.4, 0.6, 0.7, 1.8118892000056803, 1, 99.99957275390625, 2.383304599992698, 9.000000, 12.000000, 2.000000,2.000000,1.000000,6.000000,0.500000,1.000000
62, test, 1, no_probe, 15, 4, 3, 4, 3, 0.7, 0.6, left, 1, 0.3, 0.4, 0.6, 0.7, 1.291252999988501, 1, , , 10.000000, 13.000000, 1.000000,3.000000,1.000000,6.000000,0.500000,1.000000
62, test, 1, no_probe, 16, 1, 3, 1, 3, 0.3, 0.6, left, 1, 0.3, 0.4, 0.6, 0.7, 2.376160500003607, 0, , , 10.000000, 13.000000, 2.000000,3.000000,1.000000,6.000000,0.500000,1.000000
62, test, 1, probe, 17, 3, 1, 1, 3, 0.6, 0.3, right, 2, 0.3, 0.4, 0.6, 0.7, 0.8274224999913713, 1, 99.99960327148438, 1.7833315000025323, 11.000000, 14.000000, 3.000000,3.000000,1.000000,6.000000,0.500000,1.000000
62, test, 1, no_probe, 18, 3, 1, 3, 1, 0.6, 0.3, left, 1, 0.3, 0.4, 0.6, 0.7, 2.800629699995625, 1, , , 12.000000, 15.000000, 1.000000,3.000000,1.000000,6.000000,0.500000,1.000000
62, test, 1, no_probe, 19, 2, 1, 2, 1, 0.4, 0.3, left, 1, 0.3, 0.4, 0.6, 0.7, 1.1726527999999234, 0, , , 12.000000, 15.000000, 2.000000,3.000000,1.000000,6.000000,0.500000,1.000000
62, test, 1, probe, 20, 4, 2, 4, 2, 0.7, 0.4, left, 1, 0.3, 0.4, 0.6, 0.7, 0.9152847999939695, 0, 99.99929809570312, 2.3333012999937637, 12.000000, 15.000000, 3.000000,3.000000,1.000000,6.000000,0.500000,1.000000
62, test, 1, no_probe, 21, 3, 1, 1, 3, 0.6, 0.3, right, 2, 0.3, 0.4, 0.6, 0.7, 0.8577197999984492, 1, , , 13.000000, 16.000000, 1.000000,2.000000,1.000000,6.000000,0.500000,1.000000
62, test, 1, probe, 22, 1, 2, 2, 1, 0.3, 0.4, right, 2, 0.3, 0.4, 0.6, 0.7, 2.6334335999999894, 1, 99.99966430664062, 2.1333110999985365, 14.000000, 17.000000, 2.000000,2.000000,1.000000,6.000000,0.500000,1.000000
62, test, 1, no_probe, 23, 4, 1, 1, 4, 0.7, 0.3, right, 2, 0.3, 0.4, 0.6, 0.7, 0.8513305999949807, 1, , , 15.000000, 18.000000, 1.000000,2.000000,1.000000,6.000000,0.500000,1.000000
62, test, 1, probe, 24, 3, 2, 3, 2, 0.6, 0.4, left, 1, 0.3, 0.4, 0.6, 0.7, 2.775105699998676, 0, 99.99972534179688, 1.9499955000064801, 15.000000, 18.000000, 2.000000,2.000000,1.000000,6.000000,0.500000,1.000000
62, test, 1, no_probe, 25, 3, 1, 1, 3, 0.6, 0.3, right, 2, 0.3, 0.4, 0.6, 0.7, 0.7496627999935299, 0, , , 15.000000, 18.000000, 1.000000,2.000000,1.000000,6.000000,0.500000,1.000000
62, test, 2, no_probe, 1, 2, 3, 3, 2, 0.4, 0.6, right, 2, 0.3, 0.4, 0.6, 0.7, 2.5183580000011716, 1, , , 1.000000, 19.000000, 1.000000,3.000000,1.000000,6.000000,0.500000,1.000000
62, test, 2, no_probe, 2, 3, 4, 4, 3, 0.6, 0.7, right, 2, 0.3, 0.4, 0.6, 0.7, 2.9104526000010082, 0, , , 1.000000, 19.000000, 2.000000,3.000000,1.000000,6.000000,0.500000,1.000000
62, test, 2, probe, 3, 4, 3, 4, 3, 0.7, 0.6, left, 1, 0.3, 0.4, 0.6, 0.7, 0.9798260000097798, 1, 99.77719116210938, 1.8495968999923207, 2.000000, 20.000000, 3.000000,3.000000,1.000000,6.000000,0.500000,1.000000
62, test, 2, no_probe, 4, 2, 4, 4, 2, 0.4, 0.7, right, 2, 0.3, 0.4, 0.6, 0.7, 3.6704306000028737, 0, , , 2.000000, 20.000000, 1.000000,3.000000,1.000000,6.000000,0.500000,1.000000
62, test, 2, no_probe, 5, 2, 1, 2, 1, 0.4, 0.3, left, 1, 0.3, 0.4, 0.6, 0.7, 1.9218003999994835, 0, , , 2.000000, 20.000000, 2.000000,3.000000,1.000000,6.000000,0.500000,1.000000
62, test, 2, probe, 6, 4, 3, 3, 4, 0.7, 0.6, right, 2, 0.3, 0.4, 0.6, 0.7, 1.701309800002491, 1, 99.99969482421875, 1.783375500002876, 3.000000, 21.000000, 3.000000,3.000000,1.000000,6.000000,0.500000,1.000000
62, test, 2, no_probe, 7, 1, 3, 3, 1, 0.3, 0.6, right, 2, 0.3, 0.4, 0.6, 0.7, 2.222825600008946, 1, , , 4.000000, 22.000000, 1.000000,2.000000,1.000000,6.000000,0.500000,1.000000
62, test, 2, probe, 8, 4, 1, 4, 1, 0.7, 0.3, left, 1, 0.3, 0.4, 0.6, 0.7, 1.4667211000050884, 1, 99.99969482421875, 1.8333369000029052, 5.000000, 23.000000, 2.000000,2.000000,1.000000,6.000000,0.500000,1.000000
62, test, 2, no_probe, 9, 1, 2, 2, 1, 0.3, 0.4, right, 2, 0.3, 0.4, 0.6, 0.7, 1.1388125999947079, 1, , , 6.000000, 24.000000, 1.000000,3.000000,1.000000,6.000000,0.500000,1.000000
62, test, 2, no_probe, 10, 1, 3, 3, 1, 0.3, 0.6, right, 2, 0.3, 0.4, 0.6, 0.7, 1.0117322000005515, 0, , , 6.000000, 24.000000, 2.000000,3.000000,1.000000,6.000000,0.500000,1.000000
62, test, 2, probe, 11, 1, 2, 2, 1, 0.3, 0.4, right, 2, 0.3, 0.4, 0.6, 0.7, 1.0405292000068584, 0, 99.99948120117188, 2.4499667000054615, 6.000000, 24.000000, 3.000000,3.000000,1.000000,6.000000,0.500000,1.000000
62, test, 2, no_probe, 12, 4, 1, 1, 4, 0.7, 0.3, right, 2, 0.3, 0.4, 0.6, 0.7, 0.7686779000068782, 0, , , 6.000000, 24.000000, 1.000000,3.000000,1.000000,6.000000,0.500000,1.000000
62, test, 2, no_probe, 13, 4, 1, 4, 1, 0.7, 0.3, left, 1, 0.3, 0.4, 0.6, 0.7, 0.6549972999928286, 1, , , 7.000000, 25.000000, 2.000000,3.000000,1.000000,6.000000,0.500000,1.000000
62, test, 2, probe, 14, 1, 3, 1, 3, 0.3, 0.6, left, 1, 0.3, 0.4, 0.6, 0.7, 1.4955800000025192, 0, 88.57461547851562, 3.0666321000026073, 7.000000, 25.000000, 3.000000,3.000000,1.000000,6.000000,0.500000,1.000000
62, test, 2, no_probe, 15, 2, 3, 3, 2, 0.4, 0.6, right, 2, 0.3, 0.4, 0.6, 0.7, 1.8037627000012435, 0, , , 7.000000, 25.000000, 1.000000,2.000000,1.000000,6.000000,0.500000,1.000000
62, test, 2, probe, 16, 3, 2, 2, 3, 0.6, 0.4, right, 2, 0.3, 0.4, 0.6, 0.7, 1.6937438000022667, 1, 95.00961303710938, 2.5666264000028605, 8.000000, 26.000000, 2.000000,2.000000,1.000000,6.000000,0.500000,1.000000
62, test, 2, no_probe, 17, 4, 2, 2, 4, 0.7, 0.4, right, 2, 0.3, 0.4, 0.6, 0.7, 0.7998391000000993, 1, , , 9.000000, 27.000000, 1.000000,2.000000,1.000000,6.000000,0.500000,1.000000
62, test, 2, probe, 18, 3, 2, 3, 2, 0.6, 0.4, left, 1, 0.3, 0.4, 0.6, 0.7, 0.985299899999518, 0, 95.97756958007812, 3.616642299995874, 9.000000, 27.000000, 2.000000,2.000000,1.000000,6.000000,0.500000,1.000000
62, test, 2, no_probe, 19, 4, 1, 4, 1, 0.7, 0.3, left, 1, 0.3, 0.4, 0.6, 0.7, 0.6926721000054386, 0, , , 9.000000, 27.000000, 1.000000,3.000000,1.000000,6.000000,0.500000,1.000000
62, test, 2, no_probe, 20, 4, 2, 2, 4, 0.7, 0.4, right, 2, 0.3, 0.4, 0.6, 0.7, 0.7442147999972804, 1, , , 10.000000, 28.000000, 2.000000,3.000000,1.000000,6.000000,0.500000,1.000000
62, test, 2, probe, 21, 4, 3, 3, 4, 0.7, 0.6, right, 2, 0.3, 0.4, 0.6, 0.7, 1.3116236999921966, 1, 97.00155639648438, 2.383312100006151, 11.000000, 29.000000, 3.000000,3.000000,1.000000,6.000000,0.500000,1.000000
62, test, 2, no_probe, 22, 1, 3, 1, 3, 0.3, 0.6, left, 1, 0.3, 0.4, 0.6, 0.7, 0.85542279999936, 1, , , 12.000000, 30.000000, 1.000000,3.000000,1.000000,6.000000,0.500000,1.000000
62, test, 2, no_probe, 23, 4, 2, 4, 2, 0.7, 0.4, left, 1, 0.3, 0.4, 0.6, 0.7, 0.9904931000055512, 1, , , 13.000000, 31.000000, 2.000000,3.000000,1.000000,6.000000,0.500000,1.000000
62, test, 2, probe, 24, 4, 2, 4, 2, 0.7, 0.4, left, 1, 0.3, 0.4, 0.6, 0.7, 0.6339165999961551, 1, 99.1949462890625, 4.14992889999121, 14.000000, 32.000000, 3.000000,3.000000,1.000000,6.000000,0.500000,1.000000
62, test, 2, no_probe, 25, 1, 3, 1, 3, 0.3, 0.6, left, 1, 0.3, 0.4, 0.6, 0.7, 0.6889895000058459, 0, , , 14.000000, 32.000000, 1.000000,2.000000,1.000000,6.000000,0.500000,1.000000
62, test, 3, no_probe, 1, 1, 4, 1, 4, 0.3, 0.7, left, 1, 0.3, 0.4, 0.6, 0.7, 2.2142410000087693, 0, , , 0.000000, 32.000000, 1.000000,2.000000,1.000000,6.000000,0.500000,1.000000
62, test, 3, probe, 2, 4, 1, 1, 4, 0.7, 0.3, right, 2, 0.3, 0.4, 0.6, 0.7, 0.7424412000109442, 1, 96.79782104492188, 2.7499918999965303, 1.000000, 33.000000, 2.000000,2.000000,1.000000,6.000000,0.500000,1.000000
62, test, 3, no_probe, 3, 4, 1, 4, 1, 0.7, 0.3, left, 1, 0.3, 0.4, 0.6, 0.7, 0.8040075000026263, 1, , , 2.000000, 34.000000, 1.000000,2.000000,1.000000,6.000000,0.500000,1.000000
62, test, 3, probe, 4, 3, 1, 1, 3, 0.6, 0.3, right, 2, 0.3, 0.4, 0.6, 0.7, 1.2848745000083, 1, 97.36447143554688, 2.2999972000106936, 3.000000, 35.000000, 2.000000,2.000000,1.000000,6.000000,0.500000,1.000000
62, test, 3, no_probe, 5, 4, 1, 1, 4, 0.7, 0.3, right, 2, 0.3, 0.4, 0.6, 0.7, 0.6135887999989791, 1, , , 4.000000, 36.000000, 1.000000,2.000000,1.000000,6.000000,0.500000,1.000000
62, test, 3, probe, 6, 3, 2, 2, 3, 0.6, 0.4, right, 2, 0.3, 0.4, 0.6, 0.7, 1.1145536999974865, 0, 96.04681396484375, 2.349983499996597, 4.000000, 36.000000, 2.000000,2.000000,1.000000,6.000000,0.500000,1.000000
62, test, 3, no_probe, 7, 4, 1, 4, 1, 0.7, 0.3, left, 1, 0.3, 0.4, 0.6, 0.7, 1.4155770000070333, 1, , , 5.000000, 37.000000, 1.000000,2.000000,1.000000,6.000000,0.500000,1.000000
62, test, 3, probe, 8, 2, 1, 1, 2, 0.4, 0.3, right, 2, 0.3, 0.4, 0.6, 0.7, 0.561074400000507, 0, 94.80950927734375, 3.5833410999912303, 5.000000, 37.000000, 2.000000,2.000000,1.000000,6.000000,0.500000,1.000000
62, test, 3, no_probe, 9, 3, 1, 1, 3, 0.6, 0.3, right, 2, 0.3, 0.4, 0.6, 0.7, 2.026046500002849, 1, , , 6.000000, 38.000000, 1.000000,2.000000,1.000000,6.000000,0.500000,1.000000
62, test, 3, probe, 10, 4, 1, 1, 4, 0.7, 0.3, right, 2, 0.3, 0.4, 0.6, 0.7, 0.4998760000016773, 0, 96.89462280273438, 2.2832616999949096, 6.000000, 38.000000, 2.000000,2.000000,1.000000,6.000000,0.500000,1.000000
62, test, 3, no_probe, 11, 4, 2, 4, 2, 0.7, 0.4, left, 1, 0.3, 0.4, 0.6, 0.7, 3.9403916000010213, 1, , , 7.000000, 39.000000, 1.000000,3.000000,1.000000,6.000000,0.500000,1.000000
62, test, 3, no_probe, 12, 4, 3, 3, 4, 0.7, 0.6, right, 2, 0.3, 0.4, 0.6, 0.7, 1.3573378000000957, 0, , , 7.000000, 39.000000, 2.000000,3.000000,1.000000,6.000000,0.500000,1.000000
62, test, 3, probe, 13, 3, 2, 3, 2, 0.6, 0.4, left, 1, 0.3, 0.4, 0.6, 0.7, 2.3270738999999594, 1, 90.30032348632812, 2.3833255999925314, 8.000000, 40.000000, 3.000000,3.000000,1.000000,6.000000,0.500000,1.000000
62, test, 3, no_probe, 14, 3, 4, 4, 3, 0.6, 0.7, right, 2, 0.3, 0.4, 0.6, 0.7, 2.02830289999838, 1, , , 9.000000, 41.000000, 1.000000,2.000000,1.000000,6.000000,0.500000,1.000000
62, test, 3, probe, 15, 3, 1, 3, 1, 0.6, 0.3, left, 1, 0.3, 0.4, 0.6, 0.7, 2.6638909000030253, 0, 92.18597412109375, 2.4666330000036396, 9.000000, 41.000000, 2.000000,2.000000,1.000000,6.000000,0.500000,1.000000
62, test, 3, no_probe, 16, 1, 3, 1, 3, 0.3, 0.6, left, 1, 0.3, 0.4, 0.6, 0.7, 2.2743329999939306, 0, , , 9.000000, 41.000000, 1.000000,3.000000,1.000000,6.000000,0.500000,1.000000
62, test, 3, no_probe, 17, 3, 2, 2, 3, 0.6, 0.4, right, 2, 0.3, 0.4, 0.6, 0.7, 1.4457114999968326, 1, , , 10.000000, 42.000000, 2.000000,3.000000,1.000000,6.000000,0.500000,1.000000
62, test, 3, probe, 18, 1, 3, 1, 3, 0.3, 0.6, left, 1, 0.3, 0.4, 0.6, 0.7, 1.5771990999928676, 0, 90.7794189453125, 2.9999806999985594, 10.000000, 42.000000, 3.000000,3.000000,1.000000,6.000000,0.500000,1.000000
62, test, 3, no_probe, 19, 3, 2, 2, 3, 0.6, 0.4, right, 2, 0.3, 0.4, 0.6, 0.7, 1.8705685999884736, 0, , , 10.000000, 42.000000, 1.000000,2.000000,1.000000,6.000000,0.500000,1.000000
62, test, 3, probe, 20, 3, 4, 4, 3, 0.6, 0.7, right, 2, 0.3, 0.4, 0.6, 0.7, 2.832649899995886, 1, 92.3092041015625, 2.2832707000052324, 11.000000, 43.000000, 2.000000,2.000000,1.000000,6.000000,0.500000,1.000000
62, test, 3, no_probe, 21, 2, 3, 3, 2, 0.4, 0.6, right, 2, 0.3, 0.4, 0.6, 0.7, 1.4891312999970978, 0, , , 11.000000, 43.000000, 1.000000,2.000000,1.000000,6.000000,0.500000,1.000000
62, test, 3, probe, 22, 4, 3, 4, 3, 0.7, 0.6, left, 1, 0.3, 0.4, 0.6, 0.7, 1.0538368999987142, 1, 89.5892333984375, 2.166643100004876, 12.000000, 44.000000, 2.000000,2.000000,1.000000,6.000000,0.500000,1.000000
62, test, 3, no_probe, 23, 2, 3, 3, 2, 0.4, 0.6, right, 2, 0.3, 0.4, 0.6, 0.7, 1.6068424999975832, 0, , , 12.000000, 44.000000, 1.000000,2.000000,1.000000,6.000000,0.500000,1.000000
62, test, 3, probe, 24, 2, 1, 1, 2, 0.4, 0.3, right, 2, 0.3, 0.4, 0.6, 0.7, 1.1909196999913547, 0, 89.43133544921875, 2.199979999990319, 12.000000, 44.000000, 2.000000,2.000000,1.000000,6.000000,0.500000,1.000000
62, test, 3, no_probe, 25, 4, 2, 2, 4, 0.7, 0.4, right, 2, 0.3, 0.4, 0.6, 0.7, 2.2268624999996973, 1, , , 13.000000, 45.000000, 1.000000,3.000000,1.000000,6.000000,0.500000,1.000000
62, test, 4, no_probe, 1, 1, 3, 3, 1, 0.3, 0.6, right, 2, 0.3, 0.4, 0.6, 0.7, 0.7775881999987178, 1, , , 1.000000, 46.000000, 1.000000,3.000000,1.000000,6.000000,0.500000,1.000000
62, test, 4, no_probe, 2, 2, 3, 3, 2, 0.4, 0.6, right, 2, 0.3, 0.4, 0.6, 0.7, 0.9149173000041628, 0, , , 1.000000, 46.000000, 2.000000,3.000000,1.000000,6.000000,0.500000,1.000000
62, test, 4, probe, 3, 1, 3, 3, 1, 0.3, 0.6, right, 2, 0.3, 0.4, 0.6, 0.7, 1.0756757999915862, 0, 93.24954223632812, 2.4495530999993207, 1.000000, 46.000000, 3.000000,3.000000,1.000000,6.000000,0.500000,1.000000
62, test, 4, no_probe, 4, 1, 4, 4, 1, 0.3, 0.7, right, 2, 0.3, 0.4, 0.6, 0.7, 3.195782800001325, 0, , , 1.000000, 46.000000, 1.000000,2.000000,1.000000,6.000000,0.500000,1.000000
62, test, 4, probe, 5, 2, 4, 4, 2, 0.4, 0.7, right, 2, 0.3, 0.4, 0.6, 0.7, 1.3329152999940561, 0, 84.06781005859375, 1.6832201999932295, 1.000000, 46.000000, 2.000000,2.000000,1.000000,6.000000,0.500000,1.000000
62, test, 4, no_probe, 6, 1, 2, 2, 1, 0.3, 0.4, right, 2, 0.3, 0.4, 0.6, 0.7, 1.996378600000753, 1, , , 2.000000, 47.000000, 1.000000,2.000000,1.000000,6.000000,0.500000,1.000000
62, test, 4, probe, 7, 4, 2, 4, 2, 0.7, 0.4, left, 1, 0.3, 0.4, 0.6, 0.7, 0.8130779999919469, 1, 90.87875366210938, 4.916641699994216, 3.000000, 48.000000, 2.000000,2.000000,1.000000,6.000000,0.500000,1.000000
62, test, 4, no_probe, 8, 4, 1, 1, 4, 0.7, 0.3, right, 2, 0.3, 0.4, 0.6, 0.7, 1.0248504999908619, 1, , , 4.000000, 49.000000, 1.000000,2.000000,1.000000,6.000000,0.500000,1.000000
62, test, 4, probe, 9, 3, 2, 2, 3, 0.6, 0.4, right, 2, 0.3, 0.4, 0.6, 0.7, 1.6740800000115996, 1, 91.85562133789062, 2.3666353000007803, 5.000000, 50.000000, 2.000000,2.000000,1.000000,6.000000,0.500000,1.000000
62, test, 4, no_probe, 10, 3, 2, 2, 3, 0.6, 0.4, right, 2, 0.3, 0.4, 0.6, 0.7, 0.5082543999888003, 0, , , 5.000000, 50.000000, 1.000000,2.000000,1.000000,6.000000,0.500000,1.000000
62, test, 4, probe, 11, 3, 4, 4, 3, 0.6, 0.7, right, 2, 0.3, 0.4, 0.6, 0.7, 1.7496793999889633, 1, 88.5911865234375, 2.41662410000572, 6.000000, 51.000000, 2.000000,2.000000,1.000000,6.000000,0.500000,1.000000
62, test, 4, no_probe, 12, 1, 3, 3, 1, 0.3, 0.6, right, 2, 0.3, 0.4, 0.6, 0.7, 1.3186900000000605, 0, , , 6.000000, 51.000000, 1.000000,2.000000,1.000000,6.000000,0.500000,1.000000
62, test, 4, probe, 13, 1, 2, 1, 2, 0.3, 0.4, left, 1, 0.3, 0.4, 0.6, 0.7, 0.771533899998758, 0, 90.6690673828125, 2.3166934000037145, 6.000000, 51.000000, 2.000000,2.000000,1.000000,6.000000,0.500000,1.000000
62, test, 4, no_probe, 14, 3, 1, 1, 3, 0.6, 0.3, right, 2, 0.3, 0.4, 0.6, 0.7, 1.0970653999975184, 1, , , 7.000000, 52.000000, 1.000000,2.000000,1.000000,6.000000,0.500000,1.000000
62, test, 4, probe, 15, 4, 3, 4, 3, 0.7, 0.6, left, 1, 0.3, 0.4, 0.6, 0.7, 0.841643000007025, 1, 90.29766845703125, 1.4999564000027021, 8.000000, 53.000000, 2.000000,2.000000,1.000000,6.000000,0.500000,1.000000
62, test, 4, no_probe, 16, 4, 2, 4, 2, 0.7, 0.4, left, 1, 0.3, 0.4, 0.6, 0.7, 0.7887344000046141, 1, , , 9.000000, 54.000000, 1.000000,3.000000,1.000000,6.000000,0.500000,1.000000
62, test, 4, no_probe, 17, 4, 3, 3, 4, 0.7, 0.6, right, 2, 0.3, 0.4, 0.6, 0.7, 1.5225152000057278, 1, , , 10.000000, 55.000000, 2.000000,3.000000,1.000000,6.000000,0.500000,1.000000
62, test, 4, probe, 18, 1, 4, 1, 4, 0.3, 0.7, left, 1, 0.3, 0.4, 0.6, 0.7, 1.5304315999965183, 0, 91.913818359375, 3.1833005000080448, 10.000000, 55.000000, 3.000000,3.000000,1.000000,6.000000,0.500000,1.000000
62, test, 4, no_probe, 19, 3, 1, 1, 3, 0.6, 0.3, right, 2, 0.3, 0.4, 0.6, 0.7, 2.14965310000116, 1, , , 11.000000, 56.000000, 1.000000,2.000000,1.000000,6.000000,0.500000,1.000000
62, test, 4, probe, 20, 3, 4, 3, 4, 0.6, 0.7, left, 1, 0.3, 0.4, 0.6, 0.7, 3.4450234999967506, 0, 93.22763061523438, 1.8333109999948647, 11.000000, 56.000000, 2.000000,2.000000,1.000000,6.000000,0.500000,1.000000
62, test, 4, no_probe, 21, 1, 2, 1, 2, 0.3, 0.4, left, 1, 0.3, 0.4, 0.6, 0.7, 1.3618489999935264, 1, , , 12.000000, 57.000000, 1.000000,2.000000,1.000000,6.000000,0.500000,1.000000
62, test, 4, probe, 22, 3, 1, 3, 1, 0.6, 0.3, left, 1, 0.3, 0.4, 0.6, 0.7, 0.9645913999993354, 1, 96.27899169921875, 2.09998440000345, 13.000000, 58.000000, 2.000000,2.000000,1.000000,6.000000,0.500000,1.000000
62, test, 4, no_probe, 23, 2, 3, 3, 2, 0.4, 0.6, right, 2, 0.3, 0.4, 0.6, 0.7, 2.6739540999988094, 0, , , 13.000000, 58.000000, 1.000000,3.000000,1.000000,6.000000,0.500000,1.000000
62, test, 4, no_probe, 24, 3, 2, 2, 3, 0.6, 0.4, right, 2, 0.3, 0.4, 0.6, 0.7, 0.7290363000065554, 1, , , 14.000000, 59.000000, 2.000000,3.000000,1.000000,6.000000,0.500000,1.000000
62, test, 4, probe, 25, 4, 2, 2, 4, 0.7, 0.4, right, 2, 0.3, 0.4, 0.6, 0.7, 0.9531478999997489, 0, 93.64834594726562, 2.6332910000055563, 14.000000, 59.000000, 3.000000,3.000000,1.000000,6.000000,0.500000,1.000000
62, test, 5, no_probe, 1, 4, 3, 3, 4, 0.7, 0.6, right, 2, 0.3, 0.4, 0.6, 0.7, 1.7308283999882406, 1, , , 1.000000, 60.000000, 1.000000,2.000000,1.000000,6.000000,0.500000,1.000000
62, test, 5, probe, 2, 4, 1, 4, 1, 0.7, 0.3, left, 1, 0.3, 0.4, 0.6, 0.7, 0.9101580000133254, 0, 89.09332275390625, 2.2499819999939064, 1.000000, 60.000000, 2.000000,2.000000,1.000000,6.000000,0.500000,1.000000
62, test, 5, no_probe, 3, 2, 4, 2, 4, 0.4, 0.7, left, 1, 0.3, 0.4, 0.6, 0.7, 1.080766200000653, 0, , , 1.000000, 60.000000, 1.000000,3.000000,1.000000,6.000000,0.500000,1.000000
62, test, 5, no_probe, 4, 4, 3, 3, 4, 0.7, 0.6, right, 2, 0.3, 0.4, 0.6, 0.7, 0.45120689999021124, 1, , , 2.000000, 61.000000, 2.000000,3.000000,1.000000,6.000000,0.500000,1.000000
62, test, 5, probe, 5, 4, 3, 3, 4, 0.7, 0.6, right, 2, 0.3, 0.4, 0.6, 0.7, 0.40727749999496154, 0, 89.86663818359375, 1.6666551000089385, 2.000000, 61.000000, 3.000000,3.000000,1.000000,6.000000,0.500000,1.000000
62, test, 5, no_probe, 6, 4, 1, 1, 4, 0.7, 0.3, right, 2, 0.3, 0.4, 0.6, 0.7, 0.6952786000038031, 1, , , 3.000000, 62.000000, 1.000000,2.000000,1.000000,6.000000,0.500000,1.000000
62, test, 5, probe, 7, 4, 2, 4, 2, 0.7, 0.4, left, 1, 0.3, 0.4, 0.6, 0.7, 0.9127216000051703, 0, 90.57742309570312, 1.8999683000001824, 3.000000, 62.000000, 2.000000,2.000000,1.000000,6.000000,0.500000,1.000000
62, test, 5, no_probe, 8, 1, 3, 3, 1, 0.3, 0.6, right, 2, 0.3, 0.4, 0.6, 0.7, 1.439873000010266, 0, , , 3.000000, 62.000000, 1.000000,2.000000,1.000000,6.000000,0.500000,1.000000
62, test, 5, probe, 9, 3, 1, 3, 1, 0.6, 0.3, left, 1, 0.3, 0.4, 0.6, 0.7, 1.1844543000042904, 1, 92.33087158203125, 2.43327720000525, 4.000000, 63.000000, 2.000000,2.000000,1.000000,6.000000,0.500000,1.000000
62, test, 5, no_probe, 10, 4, 1, 1, 4, 0.7, 0.3, right, 2, 0.3, 0.4, 0.6, 0.7, 1.0554848999890964, 0, , , 4.000000, 63.000000, 1.000000,2.000000,1.000000,6.000000,0.500000,1.000000
62, test, 5, probe, 11, 1, 4, 1, 4, 0.3, 0.7, left, 1, 0.3, 0.4, 0.6, 0.7, 0.7241844000091078, 1, 90.32992553710938, 3.4666723999980604, 5.000000, 64.000000, 2.000000,2.000000,1.000000,6.000000,0.500000,1.000000
62, test, 5, no_probe, 12, 2, 1, 1, 2, 0.4, 0.3, right, 2, 0.3, 0.4, 0.6, 0.7, 3.5129517000023043, 1, , , 6.000000, 65.000000, 1.000000,3.000000,1.000000,6.000000,0.500000,1.000000
62, test, 5, no_probe, 13, 3, 1, 3, 1, 0.6, 0.3, left, 1, 0.3, 0.4, 0.6, 0.7, 1.4765255999955116, 0, , , 6.000000, 65.000000, 2.000000,3.000000,1.000000,6.000000,0.500000,1.000000
62, test, 5, probe, 14, 4, 2, 2, 4, 0.7, 0.4, right, 2, 0.3, 0.4, 0.6, 0.7, 1.0228948000003584, 1, 87.59011840820312, 1.6832546000077855, 7.000000, 66.000000, 3.000000,3.000000,1.000000,6.000000,0.500000,1.000000
62, test, 5, no_probe, 15, 4, 2, 4, 2, 0.7, 0.4, left, 1, 0.3, 0.4, 0.6, 0.7, 1.158948700001929, 1, , , 8.000000, 67.000000, 1.000000,2.000000,1.000000,6.000000,0.500000,1.000000
62, test, 5, probe, 16, 4, 3, 4, 3, 0.7, 0.6, left, 1, 0.3, 0.4, 0.6, 0.7, 2.0835303999920143, 1, 94.09332275390625, 2.66664710000623, 9.000000, 68.000000, 2.000000,2.000000,1.000000,6.000000,0.500000,1.000000
62, test, 5, no_probe, 17, 2, 4, 4, 2, 0.4, 0.7, right, 2, 0.3, 0.4, 0.6, 0.7, 2.276860099998885, 0, , , 9.000000, 68.000000, 1.000000,2.000000,1.000000,6.000000,0.500000,1.000000
62, test, 5, probe, 18, 2, 4, 4, 2, 0.4, 0.7, right, 2, 0.3, 0.4, 0.6, 0.7, 2.271233099992969, 0, 92.21185302734375, 2.483280600004946, 9.000000, 68.000000, 2.000000,2.000000,1.000000,6.000000,0.500000,1.000000
62, test, 5, no_probe, 19, 4, 2, 2, 4, 0.7, 0.4, right, 2, 0.3, 0.4, 0.6, 0.7, 1.3946819999982836, 1, , , 10.000000, 69.000000, 1.000000,2.000000,1.000000,6.000000,0.500000,1.000000
62, test, 5, probe, 20, 2, 3, 3, 2, 0.4, 0.6, right, 2, 0.3, 0.4, 0.6, 0.7, 3.4237704999977723, 1, 92.99288940429688, 1.7166500000021188, 11.000000, 70.000000, 2.000000,2.000000,1.000000,6.000000,0.500000,1.000000
62, test, 5, no_probe, 21, 2, 1, 2, 1, 0.4, 0.3, left, 1, 0.3, 0.4, 0.6, 0.7, 0.9825582000048598, 0, , , 11.000000, 70.000000, 1.000000,2.000000,1.000000,6.000000,0.500000,1.000000
62, test, 5, probe, 22, 4, 2, 4, 2, 0.7, 0.4, left, 1, 0.3, 0.4, 0.6, 0.7, 1.1407818000006955, 1, 94.354736328125, 2.5500140999938594, 12.000000, 71.000000, 2.000000,2.000000,1.000000,6.000000,0.500000,1.000000
62, test, 5, no_probe, 23, 4, 2, 4, 2, 0.7, 0.4, left, 1, 0.3, 0.4, 0.6, 0.7, 1.2652496000082465, 1, , , 13.000000, 72.000000, 1.000000,2.000000,1.000000,6.000000,0.500000,1.000000
62, test, 5, probe, 24, 1, 2, 2, 1, 0.3, 0.4, right, 2, 0.3, 0.4, 0.6, 0.7, 2.030820500003756, 0, 91.15390014648438, 1.89995849999832, 13.000000, 72.000000, 2.000000,2.000000,1.000000,6.000000,0.500000,1.000000
62, test, 5, no_probe, 25, 2, 1, 2, 1, 0.4, 0.3, left, 1, 0.3, 0.4, 0.6, 0.7, 1.527071899996372, 0, , , 13.000000, 72.000000, 1.000000,3.000000,1.000000,6.000000,0.500000,1.000000
62, test, 6, no_probe, 1, 2, 1, 1, 2, 0.4, 0.3, right, 2, 0.3, 0.4, 0.6, 0.7, 2.187637700000778, 0, , , 0.000000, 72.000000, 1.000000,3.000000,1.000000,6.000000,0.500000,1.000000
62, test, 6, no_probe, 2, 4, 2, 2, 4, 0.7, 0.4, right, 2, 0.3, 0.4, 0.6, 0.7, 0.9738074000051711, 1, , , 1.000000, 73.000000, 2.000000,3.000000,1.000000,6.000000,0.500000,1.000000
62, test, 6, probe, 3, 3, 4, 3, 4, 0.6, 0.7, left, 1, 0.3, 0.4, 0.6, 0.7, 2.100866999986465, 1, 89.86181640625, 2.3498184999916703, 2.000000, 74.000000, 3.000000,3.000000,1.000000,6.000000,0.500000,1.000000
62, test, 6, no_probe, 4, 4, 2, 2, 4, 0.7, 0.4, right, 2, 0.3, 0.4, 0.6, 0.7, 4.623770299993339, 0, , , 2.000000, 74.000000, 1.000000,3.000000,1.000000,6.000000,0.500000,1.000000
62, test, 6, no_probe, 5, 3, 2, 2, 3, 0.6, 0.4, right, 2, 0.3, 0.4, 0.6, 0.7, 2.1727896999946097, 1, , , 3.000000, 75.000000, 2.000000,3.000000,1.000000,6.000000,0.500000,1.000000
62, test, 6, probe, 6, 1, 4, 1, 4, 0.3, 0.7, left, 1, 0.3, 0.4, 0.6, 0.7, 1.898814999993192, 0, 87.14291381835938, 1.633321999994223, 3.000000, 75.000000, 3.000000,3.000000,1.000000,6.000000,0.500000,1.000000
62, test, 6, no_probe, 7, 3, 4, 4, 3, 0.6, 0.7, right, 2, 0.3, 0.4, 0.6, 0.7, 1.9972626000089804, 0, , , 3.000000, 75.000000, 1.000000,3.000000,1.000000,6.000000,0.500000,1.000000
62, test, 6, no_probe, 8, 1, 2, 2, 1, 0.3, 0.4, right, 2, 0.3, 0.4, 0.6, 0.7, 2.410263500001747, 1, , , 4.000000, 76.000000, 2.000000,3.000000,1.000000,6.000000,0.500000,1.000000
62, test, 6, probe, 9, 1, 2, 2, 1, 0.3, 0.4, right, 2, 0.3, 0.4, 0.6, 0.7, 0.5170484999980545, 1, 89.81979370117188, 1.6499544999969658, 5.000000, 77.000000, 3.000000,3.000000,1.000000,6.000000,0.500000,1.000000
62, test, 6, no_probe, 10, 3, 4, 3, 4, 0.6, 0.7, left, 1, 0.3, 0.4, 0.6, 0.7, 0.7137381999928039, 0, , , 5.000000, 77.000000, 1.000000,3.000000,1.000000,6.000000,0.500000,1.000000
62, test, 6, no_probe, 11, 3, 2, 3, 2, 0.6, 0.4, left, 1, 0.3, 0.4, 0.6, 0.7, 2.1225225999951363, 0, , , 5.000000, 77.000000, 2.000000,3.000000,1.000000,6.000000,0.500000,1.000000
62, test, 6, probe, 12, 4, 2, 2, 4, 0.7, 0.4, right, 2, 0.3, 0.4, 0.6, 0.7, 2.566575799995917, 1, 88.83062744140625, 1.76663300000655, 6.000000, 78.000000, 3.000000,3.000000,1.000000,6.000000,0.500000,1.000000
62, test, 6, no_probe, 13, 3, 1, 1, 3, 0.6, 0.3, right, 2, 0.3, 0.4, 0.6, 0.7, 1.8866744999977527, 1, , , 7.000000, 79.000000, 1.000000,3.000000,1.000000,6.000000,0.500000,1.000000
62, test, 6, no_probe, 14, 4, 1, 1, 4, 0.7, 0.3, right, 2, 0.3, 0.4, 0.6, 0.7, 1.2194281999982195, 1, , , 8.000000, 80.000000, 2.000000,3.000000,1.000000,6.000000,0.500000,1.000000
62, test, 6, probe, 15, 4, 3, 4, 3, 0.7, 0.6, left, 1, 0.3, 0.4, 0.6, 0.7, 2.284752899999148, 1, 91.61367797851562, 1.8499739999970188, 9.000000, 81.000000, 3.000000,3.000000,1.000000,6.000000,0.500000,1.000000
62, test, 6, no_probe, 16, 4, 1, 1, 4, 0.7, 0.3, right, 2, 0.3, 0.4, 0.6, 0.7, 1.8520626999961678, 1, , , 10.000000, 82.000000, 1.000000,3.000000,1.000000,6.000000,0.500000,1.000000
62, test, 6, no_probe, 17, 2, 3, 3, 2, 0.4, 0.6, right, 2, 0.3, 0.4, 0.6, 0.7, 1.5903452999918954, 0, , , 10.000000, 82.000000, 2.000000,3.000000,1.000000,6.000000,0.500000,1.000000
62, test, 6, probe, 18, 3, 4, 3, 4, 0.6, 0.7, left, 1, 0.3, 0.4, 0.6, 0.7, 1.1328802999923937, 1, 92.3018798828125, 1.7166737999941688, 11.000000, 83.000000, 3.000000,3.000000,1.000000,6.000000,0.500000,1.000000
62, test, 6, no_probe, 19, 3, 2, 2, 3, 0.6, 0.4, right, 2, 0.3, 0.4, 0.6, 0.7, 1.69446740001149, 0, , , 11.000000, 83.000000, 1.000000,2.000000,1.000000,6.000000,0.500000,1.000000
62, test, 6, probe, 20, 1, 2, 2, 1, 0.3, 0.4, right, 2, 0.3, 0.4, 0.6, 0.7, 1.2326977000047918, 0, 88.6279296875, 1.749881000010646, 11.000000, 83.000000, 2.000000,2.000000,1.000000,6.000000,0.500000,1.000000
62, test, 6, no_probe, 21, 1, 3, 1, 3, 0.3, 0.6, left, 1, 0.3, 0.4, 0.6, 0.7, 1.008884599999874, 0, , , 11.000000, 83.000000, 1.000000,3.000000,1.000000,6.000000,0.500000,1.000000
62, test, 6, no_probe, 22, 4, 3, 4, 3, 0.7, 0.6, left, 1, 0.3, 0.4, 0.6, 0.7, 1.1063775999937207, 1, , , 12.000000, 84.000000, 2.000000,3.000000,1.000000,6.000000,0.500000,1.000000
62, test, 6, probe, 23, 1, 3, 3, 1, 0.3, 0.6, right, 2, 0.3, 0.4, 0.6, 0.7, 0.6164717999927234, 0, 88.57595825195312, 1.6499747000052594, 12.000000, 84.000000, 3.000000,3.000000,1.000000,6.000000,0.500000,1.000000
62, test, 6, no_probe, 24, 4, 3, 4, 3, 0.7, 0.6, left, 1, 0.3, 0.4, 0.6, 0.7, 0.6176478999987012, 1, , , 13.000000, 85.000000, 1.000000,3.000000,1.000000,6.000000,0.500000,1.000000
62, test, 6, no_probe, 25, 4, 2, 4, 2, 0.7, 0.4, left, 1, 0.3, 0.4, 0.6, 0.7, 1.7934362999949371, 1, , , 14.000000, 86.000000, 2.000000,3.000000,1.000000,6.000000,0.500000,1.000000
62, test, 7, no_probe, 1, 2, 4, 4, 2, 0.4, 0.7, right, 2, 0.3, 0.4, 0.6, 0.7, 1.76637669999036, 1, , , 1.000000, 87.000000, 1.000000,2.000000,1.000000,6.000000,0.500000,1.000000
62, test, 7, probe, 2, 1, 2, 1, 2, 0.3, 0.4, left, 1, 0.3, 0.4, 0.6, 0.7, 1.3181872999994084, 1, 87.77752685546875, 1.716639899997972, 2.000000, 88.000000, 2.000000,2.000000,1.000000,6.000000,0.500000,1.000000
62, test, 7, no_probe, 3, 3, 1, 1, 3, 0.6, 0.3, right, 2, 0.3, 0.4, 0.6, 0.7, 1.7718554000020958, 0, , , 2.000000, 88.000000, 1.000000,2.000000,1.000000,6.000000,0.500000,1.000000
62, test, 7, probe, 4, 4, 3, 3, 4, 0.7, 0.6, right, 2, 0.3, 0.4, 0.6, 0.7, 1.2000180000031833, 1, 85.14596557617188, 1.7333250000083353, 3.000000, 89.000000, 2.000000,2.000000,1.000000,6.000000,0.500000,1.000000
62, test, 7, no_probe, 5, 2, 3, 3, 2, 0.4, 0.6, right, 2, 0.3, 0.4, 0.6, 0.7, 2.3343529000121634, 0, , , 3.000000, 89.000000, 1.000000,3.000000,1.000000,6.000000,0.500000,1.000000
62, test, 7, no_probe, 6, 3, 1, 3, 1, 0.6, 0.3, left, 1, 0.3, 0.4, 0.6, 0.7, 2.3461797000054503, 0, , , 3.000000, 89.000000, 2.000000,3.000000,1.000000,6.000000,0.500000,1.000000
62, test, 7, probe, 7, 3, 1, 1, 3, 0.6, 0.3, right, 2, 0.3, 0.4, 0.6, 0.7, 1.048858599999221, 0, 86.482421875, 1.6833782000030624, 3.000000, 89.000000, 3.000000,3.000000,1.000000,6.000000,0.500000,1.000000
62, test, 7, no_probe, 8, 4, 3, 3, 4, 0.7, 0.6, right, 2, 0.3, 0.4, 0.6, 0.7, 1.6757627000042703, 1, , , 4.000000, 90.000000, 1.000000,3.000000,1.000000,6.000000,0.500000,1.000000
62, test, 7, no_probe, 9, 2, 3, 3, 2, 0.4, 0.6, right, 2, 0.3, 0.4, 0.6, 0.7, 1.6071994000085397, 0, , , 4.000000, 90.000000, 2.000000,3.000000,1.000000,6.000000,0.500000,1.000000
62, test, 7, probe, 10, 4, 1, 1, 4, 0.7, 0.3, right, 2, 0.3, 0.4, 0.6, 0.7, 3.9245292999985395, 0, 84.30313110351562, 1.850000899998122, 4.000000, 90.000000, 3.000000,3.000000,1.000000,6.000000,0.500000,1.000000
62, test, 7, no_probe, 11, 2, 3, 2, 3, 0.4, 0.6, left, 1, 0.3, 0.4, 0.6, 0.7, 2.837715199988452, 0, , , 4.000000, 90.000000, 1.000000,2.000000,1.000000,6.000000,0.500000,1.000000
62, test, 7, probe, 12, 2, 4, 4, 2, 0.4, 0.7, right, 2, 0.3, 0.4, 0.6, 0.7, 1.8010351999982959, 0, 84.03012084960938, 1.433323900011601, 4.000000, 90.000000, 2.000000,2.000000,1.000000,6.000000,0.500000,1.000000
62, test, 7, no_probe, 13, 1, 2, 2, 1, 0.3, 0.4, right, 2, 0.3, 0.4, 0.6, 0.7, 1.9442255000030855, 0, , , 4.000000, 90.000000, 1.000000,2.000000,1.000000,6.000000,0.500000,1.000000
62, test, 7, probe, 14, 3, 1, 3, 1, 0.6, 0.3, left, 1, 0.3, 0.4, 0.6, 0.7, 0.5678049999987707, 1, 85.01376342773438, 1.5499979000014719, 5.000000, 91.000000, 2.000000,2.000000,1.000000,6.000000,0.500000,1.000000
62, test, 7, no_probe, 15, 2, 4, 2, 4, 0.4, 0.7, left, 1, 0.3, 0.4, 0.6, 0.7, 1.3840638999972725, 0, , , 5.000000, 91.000000, 1.000000,2.000000,1.000000,6.000000,0.500000,1.000000
62, test, 7, probe, 16, 2, 1, 2, 1, 0.4, 0.3, left, 1, 0.3, 0.4, 0.6, 0.7, 1.5340768000023672, 0, 84.94879150390625, 1.5499603000062052, 5.000000, 91.000000, 2.000000,2.000000,1.000000,6.000000,0.500000,1.000000
62, test, 7, no_probe, 17, 3, 2, 2, 3, 0.6, 0.4, right, 2, 0.3, 0.4, 0.6, 0.7, 0.6659280999883777, 1, , , 6.000000, 92.000000, 1.000000,3.000000,1.000000,6.000000,0.500000,1.000000
62, test, 7, no_probe, 18, 2, 1, 1, 2, 0.4, 0.3, right, 2, 0.3, 0.4, 0.6, 0.7, 1.4741754999995464, 0, , , 6.000000, 92.000000, 2.000000,3.000000,1.000000,6.000000,0.500000,1.000000
62, test, 7, probe, 19, 1, 3, 1, 3, 0.3, 0.6, left, 1, 0.3, 0.4, 0.6, 0.7, 1.7971716000029119, 0, 84.94790649414062, 1.6499966000119457, 6.000000, 92.000000, 3.000000,3.000000,1.000000,6.000000,0.500000,1.000000
62, test, 7, no_probe, 20, 4, 1, 1, 4, 0.7, 0.3, right, 2, 0.3, 0.4, 0.6, 0.7, 2.1259521000029054, 1, , , 7.000000, 93.000000, 1.000000,2.000000,1.000000,6.000000,0.500000,1.000000
62, test, 7, probe, 21, 1, 2, 1, 2, 0.3, 0.4, left, 1, 0.3, 0.4, 0.6, 0.7, 0.8756238999922061, 0, 85.81594848632812, 1.483322699990822, 7.000000, 93.000000, 2.000000,2.000000,1.000000,6.000000,0.500000,1.000000
62, test, 7, no_probe, 22, 4, 3, 3, 4, 0.7, 0.6, right, 2, 0.3, 0.4, 0.6, 0.7, 0.6602175000007264, 0, , , 7.000000, 93.000000, 1.000000,3.000000,1.000000,6.000000,0.500000,1.000000
62, test, 7, no_probe, 23, 3, 1, 1, 3, 0.6, 0.3, right, 2, 0.3, 0.4, 0.6, 0.7, 0.605077700005495, 1, , , 8.000000, 94.000000, 2.000000,3.000000,1.000000,6.000000,0.500000,1.000000
62, test, 7, probe, 24, 3, 4, 3, 4, 0.6, 0.7, left, 1, 0.3, 0.4, 0.6, 0.7, 1.1892572999931872, 0, 82.88681030273438, 1.3999867999955313, 8.000000, 94.000000, 3.000000,3.000000,1.000000,6.000000,0.500000,1.000000
62, test, 7, no_probe, 25, 4, 1, 1, 4, 0.7, 0.3, right, 2, 0.3, 0.4, 0.6, 0.7, 0.5659585999965202, 1, , , 9.000000, 95.000000, 1.000000,2.000000,1.000000,6.000000,0.500000,1.000000
62, test, 8, no_probe, 1, 2, 3, 3, 2, 0.4, 0.6, right, 2, 0.3, 0.4, 0.6, 0.7, 0.552515699993819, 1, , , 1.000000, 96.000000, 1.000000,3.000000,1.000000,6.000000,0.500000,1.000000
62, test, 8, no_probe, 2, 4, 3, 3, 4, 0.7, 0.6, right, 2, 0.3, 0.4, 0.6, 0.7, 1.1764834999921732, 1, , , 2.000000, 97.000000, 2.000000,3.000000,1.000000,6.000000,0.500000,1.000000
62, test, 8, probe, 3, 4, 3, 3, 4, 0.7, 0.6, right, 2, 0.3, 0.4, 0.6, 0.7, 1.1239434000017354, 1, 90.23336791992188, 1.8996369000087725, 3.000000, 98.000000, 3.000000,3.000000,1.000000,6.000000,0.500000,1.000000
62, test, 8, no_probe, 4, 2, 4, 4, 2, 0.4, 0.7, right, 2, 0.3, 0.4, 0.6, 0.7, 3.2059706000000006, 1, , , 4.000000, 99.000000, 1.000000,2.000000,1.000000,6.000000,0.500000,1.000000
62, test, 8, probe, 5, 2, 3, 2, 3, 0.4, 0.6, left, 1, 0.3, 0.4, 0.6, 0.7, 1.248860000006971, 1, 89.520263671875, 2.3666580999997677, 5.000000, 100.000000, 2.000000,2.000000,1.000000,6.000000,0.500000,1.000000
62, test, 8, no_probe, 6, 2, 3, 3, 2, 0.4, 0.6, right, 2, 0.3, 0.4, 0.6, 0.7, 0.5707498999981908, 1, , , 6.000000, 101.000000, 1.000000,3.000000,1.000000,6.000000,0.500000,1.000000
62, test, 8, no_probe, 7, 2, 3, 2, 3, 0.4, 0.6, left, 1, 0.3, 0.4, 0.6, 0.7, 0.7068116000009468, 1, , , 7.000000, 102.000000, 2.000000,3.000000,1.000000,6.000000,0.500000,1.000000
62, test, 8, probe, 8, 2, 1, 1, 2, 0.4, 0.3, right, 2, 0.3, 0.4, 0.6, 0.7, 1.0278587000066182, 0, 94.18606567382812, 2.283303000003798, 7.000000, 102.000000, 3.000000,3.000000,1.000000,6.000000,0.500000,1.000000
62, test, 8, no_probe, 9, 2, 4, 2, 4, 0.4, 0.7, left, 1, 0.3, 0.4, 0.6, 0.7, 0.9598199999891222, 1, , , 8.000000, 103.000000, 1.000000,3.000000,1.000000,6.000000,0.500000,1.000000
62, test, 8, no_probe, 10, 1, 2, 1, 2, 0.3, 0.4, left, 1, 0.3, 0.4, 0.6, 0.7, 1.0712578000093345, 1, , , 9.000000, 104.000000, 2.000000,3.000000,1.000000,6.000000,0.500000,1.000000
62, test, 8, probe, 11, 1, 2, 1, 2, 0.3, 0.4, left, 1, 0.3, 0.4, 0.6, 0.7, 1.229428699996788, 1, 93.45379638671875, 1.8666590999928303, 10.000000, 105.000000, 3.000000,3.000000,1.000000,6.000000,0.500000,1.000000
62, test, 8, no_probe, 12, 2, 1, 1, 2, 0.4, 0.3, right, 2, 0.3, 0.4, 0.6, 0.7, 0.5694294999993872, 1, , , 11.000000, 106.000000, 1.000000,3.000000,1.000000,6.000000,0.500000,1.000000
62, test, 8, no_probe, 13, 4, 3, 3, 4, 0.7, 0.6, right, 2, 0.3, 0.4, 0.6, 0.7, 3.5807177999959094, 1, , , 12.000000, 107.000000, 2.000000,3.000000,1.000000,6.000000,0.500000,1.000000
62, test, 8, probe, 14, 2, 4, 2, 4, 0.4, 0.7, left, 1, 0.3, 0.4, 0.6, 0.7, 1.2049304000101984, 0, 90.5625, 1.599992999996175, 12.000000, 107.000000, 3.000000,3.000000,1.000000,6.000000,0.500000,1.000000
62, test, 8, no_probe, 15, 2, 3, 3, 2, 0.4, 0.6, right, 2, 0.3, 0.4, 0.6, 0.7, 1.6293845000036526, 1, , , 13.000000, 108.000000, 1.000000,3.000000,1.000000,6.000000,0.500000,1.000000
62, test, 8, no_probe, 16, 4, 3, 4, 3, 0.7, 0.6, left, 1, 0.3, 0.4, 0.6, 0.7, 1.1464678999909665, 1, , , 14.000000, 109.000000, 2.000000,3.000000,1.000000,6.000000,0.500000,1.000000
62, test, 8, probe, 17, 4, 3, 3, 4, 0.7, 0.6, right, 2, 0.3, 0.4, 0.6, 0.7, 0.9734119999920949, 1, 93.37933349609375, 1.5999706000002334, 15.000000, 110.000000, 3.000000,3.000000,1.000000,6.000000,0.500000,1.000000
62, test, 8, no_probe, 18, 2, 3, 3, 2, 0.4, 0.6, right, 2, 0.3, 0.4, 0.6, 0.7, 0.8396098999946844, 0, , , 15.000000, 110.000000, 1.000000,3.000000,1.000000,6.000000,0.500000,1.000000
62, test, 8, no_probe, 19, 4, 2, 4, 2, 0.7, 0.4, left, 1, 0.3, 0.4, 0.6, 0.7, 3.6113905000092927, 1, , , 16.000000, 111.000000, 2.000000,3.000000,1.000000,6.000000,0.500000,1.000000
62, test, 8, probe, 20, 4, 1, 1, 4, 0.7, 0.3, right, 2, 0.3, 0.4, 0.6, 0.7, 1.4674923000129638, 1, 93.7236328125, 1.716632399999071, 17.000000, 112.000000, 3.000000,3.000000,1.000000,6.000000,0.500000,1.000000
62, test, 8, no_probe, 21, 4, 2, 2, 4, 0.7, 0.4, right, 2, 0.3, 0.4, 0.6, 0.7, 2.187581799997133, 1, , , 18.000000, 113.000000, 1.000000,2.000000,1.000000,6.000000,0.500000,1.000000
62, test, 8, probe, 22, 4, 1, 4, 1, 0.7, 0.3, left, 1, 0.3, 0.4, 0.6, 0.7, 1.973777400009567, 0, 92.1177978515625, 2.4499315000139177, 18.000000, 113.000000, 2.000000,2.000000,1.000000,6.000000,0.500000,1.000000
62, test, 8, no_probe, 23, 1, 3, 3, 1, 0.3, 0.6, right, 2, 0.3, 0.4, 0.6, 0.7, 1.5945539999956964, 0, , , 18.000000, 113.000000, 1.000000,2.000000,1.000000,6.000000,0.500000,1.000000
62, test, 8, probe, 24, 2, 3, 2, 3, 0.4, 0.6, left, 1, 0.3, 0.4, 0.6, 0.7, 0.6151390000013635, 0, 92.03091430664062, 2.4832927999959793, 18.000000, 113.000000, 2.000000,2.000000,1.000000,6.000000,0.500000,1.000000
62, test, 8, no_probe, 25, 4, 1, 4, 1, 0.7, 0.3, left, 1, 0.3, 0.4, 0.6, 0.7, 1.5271140999975614, 0, , , 18.000000, 113.000000, 1.000000,2.000000,1.000000,6.000000,0.500000,1.000000
