subject, block_type, block, thought probe, trial, chosen, unchosen, offer_left_image, offer_right_image, exp_value_chosen, exp_value_unchosen, choice_location, choice_key, exp_value1, exp_value2, exp_value3, exp_value4, RT, reward, vas, RT_vas, coins_per_block, coins_per_task, count_to_prob, ntrial_to_prob, ITI_duration,RT_deadline,choice_feedback_duration,outcome_duration
59, test,1, no_probe,1,3,4,3,4,0.6,0.7, left,1,0.3,0.4,0.6,0.7,2.2066923,1, , ,1,1,1,3,1,6,0.5,1
59, test,1, no_probe,2,2,3,3,2,0.4,0.6, right,2,0.3,0.4,0.6,0.7,2.8800963,0, , ,1,1,2,3,1,6,0.5,1
59, test,1, probe,3,3,4,3,4,0.6,0.7, left,1,0.3,0.4,0.6,0.7,1.5695152,0,73.88067627,4.6161387,1,1,3,3,1,6,0.5,1
59, test,1, no_probe,4,4,1,1,4,0.7,0.3, right,2,0.3,0.4,0.6,0.7,3.0383292,0, , ,1,1,1,3,1,6,0.5,1
59, test,1, no_probe,5,3,4,3,4,0.6,0.7, left,1,0.3,0.4,0.6,0.7,2.0870364,0, , ,1,1,2,3,1,6,0.5,1
59, test,1, probe,6,4,3,3,4,0.7,0.6, right,2,0.3,0.4,0.6,0.7,1.7760935,1,60.38076782,3.500008,2,2,3,3,1,6,0.5,1
59, test,1, no_probe,1,1,4,1,4,0.3,0.7, left,1,0.3,0.4,0.6,0.7,1.4642796,0, , ,0,2,1,2,1,6,0.5,1
59, test,1, probe,2,4,2,4,2,0.7,0.4, left,1,0.3,0.4,0.6,0.7,1.3665886,1,86.22476196,3.9165938,1,3,2,2,1,6,0.5,1
59, test,1, no_probe,3,4,3,4,3,0.7,0.6, left,1,0.3,0.4,0.6,0.7,1.1440392,1, , ,2,4,1,3,1,6,0.5,1
59, test,1, no_probe,4,3,1,1,3,0.6,0.3, right,2,0.3,0.4,0.6,0.7,1.062495,1, , ,3,5,2,3,1,6,0.5,1
59, test,1, probe,5,4,1,1,4,0.7,0.3, right,2,0.3,0.4,0.6,0.7,1.2059814,0,79.30529785,2.7666256,3,5,3,3,1,6,0.5,1
59, test,1, no_probe,6,1,2,2,1,0.3,0.4, right,2,0.3,0.4,0.6,0.7,2.3036032,1, , ,4,6,1,2,1,6,0.5,1
59, test,1, probe,7,1,4,1,4,0.3,0.7, left,1,0.3,0.4,0.6,0.7,1.0519629,0,84.38589478,3.3666181,4,6,2,2,1,6,0.5,1
59, test,1, no_probe,8,3,4,3,4,0.6,0.7, left,1,0.3,0.4,0.6,0.7,2.0720185,1, , ,5,7,1,2,1,6,0.5,1
59, test,1, probe,9,4,1,1,4,0.7,0.3, right,2,0.3,0.4,0.6,0.7,2.603455,1,82.74282837,2.7833182,6,8,2,2,1,6,0.5,1
59, test,1, no_probe,10,4,2,2,4,0.7,0.4, right,2,0.3,0.4,0.6,0.7,2.5480049,0, , ,6,8,1,3,1,6,0.5,1
59, test,1, no_probe,11,1,4,4,1,0.3,0.7, right,2,0.3,0.4,0.6,0.7,3.4551953,0, , ,6,8,2,3,1,6,0.5,1
59, test,1, probe,12,1,3,1,3,0.3,0.6, left,1,0.3,0.4,0.6,0.7,2.8548006,1,74.78921509,1.9499337,7,9,3,3,1,6,0.5,1
59, test,1, no_probe,13,2,1,2,1,0.4,0.3, left,1,0.3,0.4,0.6,0.7,3.7782696,0, , ,7,9,1,2,1,6,0.5,1
59, test,1, probe,14,3,4,3,4,0.6,0.7, left,1,0.3,0.4,0.6,0.7,0.9210142,1,82.44558716,3.4832782,8,10,2,2,1,6,0.5,1
59, test,1, no_probe,15,4,3,4,3,0.7,0.6, left,1,0.3,0.4,0.6,0.7,3.0651642,1, , ,9,11,1,3,1,6,0.5,1
59, test,1, no_probe,16,2,3,2,3,0.4,0.6, left,1,0.3,0.4,0.6,0.7,1.8315049,0, , ,9,11,2,3,1,6,0.5,1
59, test,1, probe,17,2,1,1,2,0.4,0.3, right,2,0.3,0.4,0.6,0.7,4.2113538,0,49.99865723,0.7332895,9,11,3,3,1,6,0.5,1
59, test,1, no_probe,18,1,4,4,1,0.3,0.7, right,2,0.3,0.4,0.6,0.7,4.4938077,0, , ,9,11,1,2,1,6,0.5,1
59, test,1, probe,19,1,2,2,1,0.3,0.4, right,2,0.3,0.4,0.6,0.7,1.8965717,0,78.08078003,1.9999748,9,11,2,2,1,6,0.5,1
59, test,1, no_probe,20,1,4,1,4,0.3,0.7, left,1,0.3,0.4,0.6,0.7,2.8366006,1, , ,10,12,1,2,1,6,0.5,1
59, test,1, probe,21,1,2,2,1,0.3,0.4, right,2,0.3,0.4,0.6,0.7,3.3520699,1,75.95178223,2.599951,11,13,2,2,1,6,0.5,1
59, test,1, abort_trial,22,,,,,,,,,,,,,,,,,,,,,,,,
59, test,1, no_probe,23,3,2,2,3,0.6,0.4, right,2,0.3,0.4,0.6,0.7,1.3172474,1, , ,12,14,1,2,1,6,0.5,1
59, test,1, probe,24,3,4,3,4,0.6,0.7, left,1,0.3,0.4,0.6,0.7,0.757323,1,80.10647583,2.2999588,13,15,2,2,1,6,0.5,1
59, test,1, no_probe,25,2,1,2,1,0.4,0.3, left,1,0.3,0.4,0.6,0.7,2.4170837,0, , ,13,15,1,3,1,6,0.5,1
59, test,2, no_probe,1,1,2,2,1,0.3,0.4, right,2,0.3,0.4,0.6,0.7,2.2756564,1, , ,1,16,1,3,1,6,0.5,1
59, test,2, no_probe,2,3,1,3,1,0.6,0.3, left,1,0.3,0.4,0.6,0.7,2.4422843,1, , ,2,17,2,3,1,6,0.5,1
59, test,2, probe,3,3,1,1,3,0.6,0.3, right,2,0.3,0.4,0.6,0.7,3.1510288,0,86.92144775,6.1828199,2,17,3,3,1,6,0.5,1
59, test,2, no_probe,4,2,3,3,2,0.4,0.6, right,2,0.3,0.4,0.6,0.7,2.6248362,0, , ,2,17,1,2,1,6,0.5,1
59, test,2, probe,5,4,1,1,4,0.7,0.3, right,2,0.3,0.4,0.6,0.7,2.8776739,1,83.7064209,2.683306,3,18,2,2,1,6,0.5,1
59, test,2, no_probe,6,4,1,4,1,0.7,0.3, left,1,0.3,0.4,0.6,0.7,1.8719873,0, , ,3,18,1,3,1,6,0.5,1
59, test,2, no_probe,7,4,1,4,1,0.7,0.3, left,1,0.3,0.4,0.6,0.7,1.1634627,1, , ,4,19,2,3,1,6,0.5,1
59, test,2, probe,8,1,4,4,1,0.3,0.7, right,2,0.3,0.4,0.6,0.7,1.1521898,1,77.51098633,2.2666575,5,20,3,3,1,6,0.5,1
59, test,2, no_probe,9,3,4,4,3,0.6,0.7, right,2,0.3,0.4,0.6,0.7,2.0706258,0, , ,5,20,1,2,1,6,0.5,1
59, test,2, probe,10,4,3,3,4,0.7,0.6, right,2,0.3,0.4,0.6,0.7,1.3556968,1,81.51727295,3.699945,6,21,2,2,1,6,0.5,1
59, test,2, no_probe,11,3,4,3,4,0.6,0.7, left,1,0.3,0.4,0.6,0.7,0.8651192,0, , ,6,21,1,3,1,6,0.5,1
59, test,2, no_probe,12,1,4,4,1,0.3,0.7, right,2,0.3,0.4,0.6,0.7,2.2400638,1, , ,7,22,2,3,1,6,0.5,1
59, test,2, probe,13,4,1,4,1,0.7,0.3, left,1,0.3,0.4,0.6,0.7,1.2489061,1,36.00976563,1.8666447,8,23,3,3,1,6,0.5,1
59, test,2, no_probe,14,1,4,1,4,0.3,0.7, left,1,0.3,0.4,0.6,0.7,1.4525391,0, , ,8,23,1,2,1,6,0.5,1
59, test,2, probe,15,1,3,1,3,0.3,0.6, left,1,0.3,0.4,0.6,0.7,2.5589163,1,72.99972534,1.9333053,9,24,2,2,1,6,0.5,1
59, test,2, no_probe,16,2,1,2,1,0.4,0.3, left,1,0.3,0.4,0.6,0.7,1.0496411,0, , ,9,24,1,2,1,6,0.5,1
59, test,2, probe,17,3,4,3,4,0.6,0.7, left,1,0.3,0.4,0.6,0.7,3.5920903,0,62.60519409,1.7666405,9,24,2,2,1,6,0.5,1
59, test,2, no_probe,18,1,3,1,3,0.3,0.6, left,1,0.3,0.4,0.6,0.7,1.2299161,0, , ,9,24,1,3,1,6,0.5,1
59, test,2, no_probe,19,1,3,1,3,0.3,0.6, left,1,0.3,0.4,0.6,0.7,0.813402,0, , ,9,24,2,3,1,6,0.5,1
59, test,2, probe,20,4,3,3,4,0.7,0.6, right,2,0.3,0.4,0.6,0.7,2.6617052,1,65.96343994,1.8332955,10,25,3,3,1,6,0.5,1
59, test,2, no_probe,21,1,4,1,4,0.3,0.7, left,1,0.3,0.4,0.6,0.7,0.8748443,0, , ,10,25,1,3,1,6,0.5,1
59, test,2, no_probe,22,2,3,3,2,0.4,0.6, right,2,0.3,0.4,0.6,0.7,0.9619495,0, , ,10,25,2,3,1,6,0.5,1
59, test,2, probe,23,4,3,3,4,0.7,0.6, right,2,0.3,0.4,0.6,0.7,0.5071434,1,70.64508057,2.3499534,11,26,3,3,1,6,0.5,1
59, test,2, no_probe,24,3,1,3,1,0.6,0.3, left,1,0.3,0.4,0.6,0.7,0.5612043,1, , ,12,27,1,3,1,6,0.5,1
59, test,2, no_probe,25,1,2,2,1,0.3,0.4, right,2,0.3,0.4,0.6,0.7,1.9520668,0, , ,12,27,2,3,1,6,0.5,1
59, test,3, no_probe,1,1,3,1,3,0.3,0.6, left,1,0.3,0.4,0.6,0.7,2.0011418,0, , ,0,27,1,2,1,6,0.5,1
59, test,3, probe,2,2,3,3,2,0.4,0.6, right,2,0.3,0.4,0.6,0.7,1.4189327,0,69.4932251,1.7166377,0,27,2,2,1,6,0.5,1
59, test,3, no_probe,3,1,3,1,3,0.3,0.6, left,1,0.3,0.4,0.6,0.7,2.5523475,1, , ,1,28,1,2,1,6,0.5,1
59, test,3, probe,4,3,1,1,3,0.6,0.3, right,2,0.3,0.4,0.6,0.7,2.0239733,0,70.99908447,1.2999839,1,28,2,2,1,6,0.5,1
59, test,3, no_probe,5,4,3,3,4,0.7,0.6, right,2,0.3,0.4,0.6,0.7,5.4962603,1, , ,2,29,1,2,1,6,0.5,1
59, test,3, probe,6,2,3,2,3,0.4,0.6, left,1,0.3,0.4,0.6,0.7,0.9402939,1,74.62915039,1.8333536,3,30,2,2,1,6,0.5,1
59, test,3, no_probe,7,2,3,2,3,0.4,0.6, left,1,0.3,0.4,0.6,0.7,1.8776299,0, , ,3,30,1,3,1,6,0.5,1
59, test,3, no_probe,8,1,3,3,1,0.3,0.6, right,2,0.3,0.4,0.6,0.7,3.0757065,0, , ,3,30,2,3,1,6,0.5,1
59, test,3, probe,9,3,2,3,2,0.6,0.4, left,1,0.3,0.4,0.6,0.7,0.7585061,1,73.18478394,1.4333511,4,31,3,3,1,6,0.5,1
59, test,3, no_probe,10,2,3,3,2,0.4,0.6, right,2,0.3,0.4,0.6,0.7,1.9114497,1, , ,5,32,1,3,1,6,0.5,1
59, test,3, no_probe,11,4,1,4,1,0.7,0.3, left,1,0.3,0.4,0.6,0.7,1.3805004,1, , ,6,33,2,3,1,6,0.5,1
59, test,3, probe,12,4,2,2,4,0.7,0.4, right,2,0.3,0.4,0.6,0.7,0.5419129,1,73.62341309,1.9333248,7,34,3,3,1,6,0.5,1
59, test,3, no_probe,13,3,2,3,2,0.6,0.4, left,1,0.3,0.4,0.6,0.7,2.0512423,1, , ,8,35,1,2,1,6,0.5,1
59, test,3, probe,14,1,3,1,3,0.3,0.6, left,1,0.3,0.4,0.6,0.7,1.4276964,0,75.65814209,1.7666225,8,35,2,2,1,6,0.5,1
59, test,3, no_probe,15,2,1,2,1,0.4,0.3, left,1,0.3,0.4,0.6,0.7,1.5550026,0, , ,8,35,1,3,1,6,0.5,1
59, test,3, no_probe,16,3,2,3,2,0.6,0.4, left,1,0.3,0.4,0.6,0.7,1.2431702,1, , ,9,36,2,3,1,6,0.5,1
59, test,3, probe,17,1,3,1,3,0.3,0.6, left,1,0.3,0.4,0.6,0.7,1.2147349,0,83.86740112,2.0665567,9,36,3,3,1,6,0.5,1
59, test,3, no_probe,18,2,3,3,2,0.4,0.6, right,2,0.3,0.4,0.6,0.7,1.1772504,0, , ,9,36,1,3,1,6,0.5,1
59, test,3, no_probe,19,1,2,2,1,0.3,0.4, right,2,0.3,0.4,0.6,0.7,0.587405,0, , ,9,36,2,3,1,6,0.5,1
59, test,3, probe,20,1,2,1,2,0.3,0.4, left,1,0.3,0.4,0.6,0.7,0.7780041,0,82.2800293,3.8832915,9,36,3,3,1,6,0.5,1
59, test,3, no_probe,21,1,2,1,2,0.3,0.4, left,1,0.3,0.4,0.6,0.7,1.3018945,0, , ,9,36,1,2,1,6,0.5,1
59, test,3, probe,22,1,3,3,1,0.3,0.6, right,2,0.3,0.4,0.6,0.7,2.2194309,1,72.02874756,1.499992,10,37,2,2,1,6,0.5,1
59, test,3, no_probe,23,2,1,2,1,0.4,0.3, left,1,0.3,0.4,0.6,0.7,0.8721665,1, , ,11,38,1,2,1,6,0.5,1
59, test,3, probe,24,4,1,4,1,0.7,0.3, left,1,0.3,0.4,0.6,0.7,0.6987914,1,82.46463013,1.9666121,12,39,2,2,1,6,0.5,1
59, test,3, no_probe,25,4,1,4,1,0.7,0.3, left,1,0.3,0.4,0.6,0.7,1.0798416,1, , ,13,40,1,3,1,6,0.5,1
59, test,4, no_probe,1,3,4,3,4,0.6,0.7, left,1,0.3,0.4,0.6,0.7,4.5091645,0, , ,0,40,1,2,1,6,0.5,1
59, test,4, abort_trial,2,,,,,,,,,,,,,,,,,,,,,,,,
59, test,4, probe,3,4,3,4,3,0.7,0.6, left,1,0.3,0.4,0.6,0.7,1.2742137,0,76.99545288,1.9496068,0,40,2,2,1,6,0.5,1
59, test,4, no_probe,4,2,4,4,2,0.4,0.7, right,2,0.3,0.4,0.6,0.7,1.3501896,0, , ,0,40,1,3,1,6,0.5,1
59, test,4, no_probe,5,4,2,4,2,0.7,0.4, left,1,0.3,0.4,0.6,0.7,0.8848684,1, , ,1,41,2,3,1,6,0.5,1
59, test,4, probe,6,2,3,3,2,0.4,0.6, right,2,0.3,0.4,0.6,0.7,2.2949587,0,78.94799805,1.4499765,1,41,3,3,1,6,0.5,1
59, test,4, no_probe,7,1,2,1,2,0.3,0.4, left,1,0.3,0.4,0.6,0.7,0.9176561,1, , ,2,42,1,2,1,6,0.5,1
59, test,4, probe,8,1,4,4,1,0.3,0.7, right,2,0.3,0.4,0.6,0.7,1.6627559,1,52.11618042,0.7666898,3,43,2,2,1,6,0.5,1
59, test,4, no_probe,9,3,2,3,2,0.6,0.4, left,1,0.3,0.4,0.6,0.7,4.9756809,1, , ,4,44,1,3,1,6,0.5,1
59, test,4, no_probe,10,1,4,1,4,0.3,0.7, left,1,0.3,0.4,0.6,0.7,0.5877989,1, , ,5,45,2,3,1,6,0.5,1
59, test,4, probe,11,3,2,3,2,0.6,0.4, left,1,0.3,0.4,0.6,0.7,1.1300102,1,71.81915283,1.4499841,6,46,3,3,1,6,0.5,1
59, test,4, no_probe,12,4,3,4,3,0.7,0.6, left,1,0.3,0.4,0.6,0.7,1.1255597,0, , ,6,46,1,2,1,6,0.5,1
59, test,4, probe,13,1,4,1,4,0.3,0.7, left,1,0.3,0.4,0.6,0.7,0.5033925,1,73.71826172,1.3499937,7,47,2,2,1,6,0.5,1
59, test,4, no_probe,14,1,2,1,2,0.3,0.4, left,1,0.3,0.4,0.6,0.7,0.6402028,0, , ,7,47,1,3,1,6,0.5,1
59, test,4, no_probe,15,2,1,1,2,0.4,0.3, right,2,0.3,0.4,0.6,0.7,0.5082987,1, , ,8,48,2,3,1,6,0.5,1
59, test,4, probe,16,2,1,1,2,0.4,0.3, right,2,0.3,0.4,0.6,0.7,0.8818245,0,74.05395508,1.3999487,8,48,3,3,1,6,0.5,1
59, test,4, no_probe,17,2,1,2,1,0.4,0.3, left,1,0.3,0.4,0.6,0.7,2.0155777,1, , ,9,49,1,2,1,6,0.5,1
59, test,4, probe,18,3,1,3,1,0.6,0.3, left,1,0.3,0.4,0.6,0.7,1.299951,1,77.88671875,2.0166528,10,50,2,2,1,6,0.5,1
59, test,4, no_probe,19,3,2,2,3,0.6,0.4, right,2,0.3,0.4,0.6,0.7,1.2156283,0, , ,10,50,1,2,1,6,0.5,1
59, test,4, probe,20,2,1,2,1,0.4,0.3, left,1,0.3,0.4,0.6,0.7,1.8918235,1,71.06991577,1.5000162,11,51,2,2,1,6,0.5,1
59, test,4, no_probe,21,2,3,2,3,0.4,0.6, left,1,0.3,0.4,0.6,0.7,0.7766628,0, , ,11,51,1,3,1,6,0.5,1
59, test,4, no_probe,22,3,1,1,3,0.6,0.3, right,2,0.3,0.4,0.6,0.7,1.1871496,0, , ,11,51,2,3,1,6,0.5,1
59, test,4, probe,23,1,2,2,1,0.3,0.4, right,2,0.3,0.4,0.6,0.7,0.6093535,0,59.42434692,1.1999688,11,51,3,3,1,6,0.5,1
59, test,4, no_probe,24,1,2,1,2,0.3,0.4, left,1,0.3,0.4,0.6,0.7,0.7579786,0, , ,11,51,1,2,1,6,0.5,1
59, test,4, probe,25,4,1,4,1,0.7,0.3, left,1,0.3,0.4,0.6,0.7,0.5166168,1,70.39788818,1.2666528,12,52,2,2,1,6,0.5,1
59, test,5, no_probe,1,3,2,3,2,0.6,0.4, left,1,0.3,0.4,0.6,0.7,2.8827491,0, , ,0,52,1,2,1,6,0.5,1
59, test,5, probe,2,1,3,1,3,0.3,0.6, left,1,0.3,0.4,0.6,0.7,0.8084763,0,72.31506348,1.5666549,0,52,2,2,1,6,0.5,1
59, test,5, no_probe,3,4,1,4,1,0.7,0.3, left,1,0.3,0.4,0.6,0.7,1.5062863,1, , ,1,53,1,3,1,6,0.5,1
59, test,5, no_probe,4,4,2,2,4,0.7,0.4, right,2,0.3,0.4,0.6,0.7,0.7078535,1, , ,2,54,2,3,1,6,0.5,1
59, test,5, probe,5,3,2,2,3,0.6,0.4, right,2,0.3,0.4,0.6,0.7,0.7489394,0,72.13973999,2.0666572,2,54,3,3,1,6,0.5,1
59, test,5, no_probe,6,4,3,4,3,0.7,0.6, left,1,0.3,0.4,0.6,0.7,1.3358653,0, , ,2,54,1,2,1,6,0.5,1
59, test,5, probe,7,4,2,2,4,0.7,0.4, right,2,0.3,0.4,0.6,0.7,1.0560976,1,72.28439331,1.5166398,3,55,2,2,1,6,0.5,1
59, test,5, no_probe,8,4,2,2,4,0.7,0.4, right,2,0.3,0.4,0.6,0.7,0.8774332,1, , ,4,56,1,2,1,6,0.5,1
59, test,5, probe,9,3,4,3,4,0.6,0.7, left,1,0.3,0.4,0.6,0.7,0.5000119,1,71.31359863,1.2333089,5,57,2,2,1,6,0.5,1
59, test,5, no_probe,10,4,2,2,4,0.7,0.4, right,2,0.3,0.4,0.6,0.7,2.4666595,1, , ,6,58,1,3,1,6,0.5,1
59, test,5, no_probe,11,3,1,1,3,0.6,0.3, right,2,0.3,0.4,0.6,0.7,1.5069557,1, , ,7,59,2,3,1,6,0.5,1
59, test,5, probe,12,4,1,1,4,0.7,0.3, right,2,0.3,0.4,0.6,0.7,0.8994442,0,72.97097778,1.5833294,7,59,3,3,1,6,0.5,1
59, test,5, no_probe,13,3,2,2,3,0.6,0.4, right,2,0.3,0.4,0.6,0.7,0.6564555,1, , ,8,60,1,3,1,6,0.5,1
59, test,5, no_probe,14,4,1,4,1,0.7,0.3, left,1,0.3,0.4,0.6,0.7,0.5801867,0, , ,8,60,2,3,1,6,0.5,1
59, test,5, probe,15,4,2,4,2,0.7,0.4, left,1,0.3,0.4,0.6,0.7,0.8496606,0,43.15014648,4.3832954,8,60,3,3,1,6,0.5,1
59, test,5, no_probe,16,3,4,3,4,0.6,0.7, left,1,0.3,0.4,0.6,0.7,0.8410806,0, , ,8,60,1,3,1,6,0.5,1
59, test,5, no_probe,17,1,3,1,3,0.3,0.6, left,1,0.3,0.4,0.6,0.7,0.7404927,1, , ,9,61,2,3,1,6,0.5,1
59, test,5, probe,18,1,4,4,1,0.3,0.7, right,2,0.3,0.4,0.6,0.7,0.6483979,1,55.09277344,2.8333021,10,62,3,3,1,6,0.5,1
59, test,5, no_probe,19,3,1,3,1,0.6,0.3, left,1,0.3,0.4,0.6,0.7,1.6047343,1, , ,11,63,1,3,1,6,0.5,1
59, test,5, no_probe,20,4,2,2,4,0.7,0.4, right,2,0.3,0.4,0.6,0.7,1.0378615,1, , ,12,64,2,3,1,6,0.5,1
59, test,5, probe,21,4,3,3,4,0.7,0.6, right,2,0.3,0.4,0.6,0.7,0.851526,0,49.99517822,2.633311,12,64,3,3,1,6,0.5,1
59, test,5, no_probe,22,4,3,3,4,0.7,0.6, right,2,0.3,0.4,0.6,0.7,1.4949212,1, , ,13,65,1,2,1,6,0.5,1
59, test,5, probe,23,3,1,1,3,0.6,0.3, right,2,0.3,0.4,0.6,0.7,0.8690116,1,61.24389648,1.6832996,14,66,2,2,1,6,0.5,1
59, test,5, no_probe,24,4,2,2,4,0.7,0.4, right,2,0.3,0.4,0.6,0.7,0.7465621,1, , ,15,67,1,2,1,6,0.5,1
59, test,5, probe,25,3,1,1,3,0.6,0.3, right,2,0.3,0.4,0.6,0.7,0.7021009,0,58.85049438,1.4999882,15,67,2,2,1,6,0.5,1
59, test,6, no_probe,1,3,1,1,3,0.6,0.3, right,2,0.3,0.4,0.6,0.7,3.0276135,1, , ,1,68,1,3,1,6,0.5,1
59, test,6, no_probe,2,4,1,1,4,0.7,0.3, right,2,0.3,0.4,0.6,0.7,1.4748445,1, , ,2,69,2,3,1,6,0.5,1
59, test,6, probe,3,3,4,3,4,0.6,0.7, left,1,0.3,0.4,0.6,0.7,1.3693468,1,69.51235962,1.6329438,3,70,3,3,1,6,0.5,1
59, test,6, no_probe,4,3,4,4,3,0.6,0.7, right,2,0.3,0.4,0.6,0.7,1.1987234,0, , ,3,70,1,3,1,6,0.5,1
59, test,6, no_probe,5,4,2,4,2,0.7,0.4, left,1,0.3,0.4,0.6,0.7,1.6552206,1, , ,4,71,2,3,1,6,0.5,1
59, test,6, probe,6,4,3,4,3,0.7,0.6, left,1,0.3,0.4,0.6,0.7,0.5186931,1,70.98638916,1.1333205,5,72,3,3,1,6,0.5,1
59, test,6, no_probe,7,1,3,3,1,0.3,0.6, right,2,0.3,0.4,0.6,0.7,1.6126153,0, , ,5,72,1,3,1,6,0.5,1
59, test,6, no_probe,8,4,1,1,4,0.7,0.3, right,2,0.3,0.4,0.6,0.7,2.7454238,1, , ,6,73,2,3,1,6,0.5,1
59, test,6, probe,9,4,1,4,1,0.7,0.3, left,1,0.3,0.4,0.6,0.7,0.8372954,0,66.77294922,1.2332744,6,73,3,3,1,6,0.5,1
59, test,6, no_probe,10,3,4,4,3,0.6,0.7, right,2,0.3,0.4,0.6,0.7,1.2825532,1, , ,7,74,1,3,1,6,0.5,1
59, test,6, no_probe,11,3,4,4,3,0.6,0.7, right,2,0.3,0.4,0.6,0.7,0.5157388,0, , ,7,74,2,3,1,6,0.5,1
59, test,6, probe,12,3,1,3,1,0.6,0.3, left,1,0.3,0.4,0.6,0.7,0.4694826,1,74.69491577,1.3666364,8,75,3,3,1,6,0.5,1
59, test,6, no_probe,13,4,3,3,4,0.7,0.6, right,2,0.3,0.4,0.6,0.7,0.0074098,1, , ,9,76,1,2,1,6,0.5,1
59, test,6, probe,14,2,3,2,3,0.4,0.6, left,1,0.3,0.4,0.6,0.7,0.5129077,0,70.86599731,1.366653,9,76,2,2,1,6,0.5,1
59, test,6, no_probe,15,4,1,1,4,0.7,0.3, right,2,0.3,0.4,0.6,0.7,1.4623771,0, , ,9,76,1,2,1,6,0.5,1
59, test,6, probe,16,1,2,1,2,0.3,0.4, left,1,0.3,0.4,0.6,0.7,0.4646142,0,63.11425781,1.3833244,9,76,2,2,1,6,0.5,1
59, test,6, no_probe,17,3,1,1,3,0.6,0.3, right,2,0.3,0.4,0.6,0.7,0.6945726,0, , ,9,76,1,3,1,6,0.5,1
59, test,6, no_probe,18,4,1,1,4,0.7,0.3, right,2,0.3,0.4,0.6,0.7,1.0040323,1, , ,10,77,2,3,1,6,0.5,1
59, test,6, probe,19,4,1,1,4,0.7,0.3, right,2,0.3,0.4,0.6,0.7,0.4585615,1,69.10440063,1.2999731,11,78,3,3,1,6,0.5,1
59, test,6, no_probe,20,4,1,4,1,0.7,0.3, left,1,0.3,0.4,0.6,0.7,0.5996349,0, , ,11,78,1,2,1,6,0.5,1
59, test,6, probe,21,2,4,2,4,0.4,0.7, left,1,0.3,0.4,0.6,0.7,0.5379139,0,32.90664673,2.9832606,11,78,2,2,1,6,0.5,1
59, test,6, no_probe,22,2,1,1,2,0.4,0.3, right,2,0.3,0.4,0.6,0.7,0.4447983,0, , ,11,78,1,3,1,6,0.5,1
59, test,6, no_probe,23,3,2,3,2,0.6,0.4, left,1,0.3,0.4,0.6,0.7,0.679614,1, , ,12,79,2,3,1,6,0.5,1
59, test,6, probe,24,2,1,1,2,0.4,0.3, right,2,0.3,0.4,0.6,0.7,0.714832,0,52.68505859,2.783296,12,79,3,3,1,6,0.5,1
59, test,6, no_probe,25,3,4,3,4,0.6,0.7, left,1,0.3,0.4,0.6,0.7,0.6653875,0, , ,12,79,1,3,1,6,0.5,1
59, test,7, no_probe,1,1,4,4,1,0.3,0.7, right,2,0.3,0.4,0.6,0.7,1.8128225,0, , ,0,79,1,3,1,6,0.5,1
59, test,7, no_probe,2,3,1,3,1,0.6,0.3, left,1,0.3,0.4,0.6,0.7,1.3409148,1, , ,1,80,2,3,1,6,0.5,1
59, test,7, probe,3,4,3,4,3,0.7,0.6, left,1,0.3,0.4,0.6,0.7,1.2776517,1,61.58337402,1.1662563,2,81,3,3,1,6,0.5,1
59, test,7, no_probe,4,2,1,2,1,0.4,0.3, left,1,0.3,0.4,0.6,0.7,1.0721772,1, , ,3,82,1,2,1,6,0.5,1
59, test,7, probe,5,3,2,3,2,0.6,0.4, left,1,0.3,0.4,0.6,0.7,1.1784092,1,57.55822754,1.7833182,4,83,2,2,1,6,0.5,1
59, test,7, no_probe,6,2,3,3,2,0.4,0.6, right,2,0.3,0.4,0.6,0.7,1.799939,1, , ,5,84,1,3,1,6,0.5,1
59, test,7, no_probe,7,4,3,3,4,0.7,0.6, right,2,0.3,0.4,0.6,0.7,3.5378705,1, , ,6,85,2,3,1,6,0.5,1
59, test,7, probe,8,4,2,4,2,0.7,0.4, left,1,0.3,0.4,0.6,0.7,0.5785361,1,49.99880981,0.649971,7,86,3,3,1,6,0.5,1
59, test,7, no_probe,9,1,3,3,1,0.3,0.6, right,2,0.3,0.4,0.6,0.7,1.4815912,0, , ,7,86,1,3,1,6,0.5,1
59, test,7, no_probe,10,2,1,2,1,0.4,0.3, left,1,0.3,0.4,0.6,0.7,0.6218958,0, , ,7,86,2,3,1,6,0.5,1
59, test,7, probe,11,3,2,2,3,0.6,0.4, right,2,0.3,0.4,0.6,0.7,0.9745921,1,48.96569824,2.0666253,8,87,3,3,1,6,0.5,1
59, test,7, no_probe,12,1,3,3,1,0.3,0.6, right,2,0.3,0.4,0.6,0.7,1.4744972,0, , ,8,87,1,3,1,6,0.5,1
59, test,7, no_probe,13,2,1,2,1,0.4,0.3, left,1,0.3,0.4,0.6,0.7,0.8326017,1, , ,9,88,2,3,1,6,0.5,1
59, test,7, probe,14,4,3,3,4,0.7,0.6, right,2,0.3,0.4,0.6,0.7,0.6773476,0,47.18746948,2.1833092,9,88,3,3,1,6,0.5,1
59, test,7, no_probe,15,3,2,3,2,0.6,0.4, left,1,0.3,0.4,0.6,0.7,1.1149644,0, , ,9,88,1,3,1,6,0.5,1
59, test,7, no_probe,16,2,1,1,2,0.4,0.3, right,2,0.3,0.4,0.6,0.7,1.1201643,0, , ,9,88,2,3,1,6,0.5,1
59, test,7, probe,17,1,4,4,1,0.3,0.7, right,2,0.3,0.4,0.6,0.7,0.5445964,0,52.68615723,3.9999564,9,88,3,3,1,6,0.5,1
59, test,7, no_probe,18,1,2,1,2,0.3,0.4, left,1,0.3,0.4,0.6,0.7,0.9588382,1, , ,10,89,1,2,1,6,0.5,1
59, test,7, probe,19,2,1,2,1,0.4,0.3, left,1,0.3,0.4,0.6,0.7,0.537253,1,50.64053345,3.3166512,11,90,2,2,1,6,0.5,1
59, test,7, no_probe,20,4,2,2,4,0.7,0.4, right,2,0.3,0.4,0.6,0.7,2.5192008,0, , ,11,90,1,2,1,6,0.5,1
59, test,7, probe,21,3,4,3,4,0.6,0.7, left,1,0.3,0.4,0.6,0.7,1.6759526,0,57.20452881,1.4832783,11,90,2,2,1,6,0.5,1
59, test,7, no_probe,22,1,4,1,4,0.3,0.7, left,1,0.3,0.4,0.6,0.7,0.7258523,1, , ,12,91,1,3,1,6,0.5,1
59, test,7, no_probe,23,3,4,3,4,0.6,0.7, left,1,0.3,0.4,0.6,0.7,0.4750332,1, , ,13,92,2,3,1,6,0.5,1
59, test,7, probe,24,1,3,3,1,0.3,0.6, right,2,0.3,0.4,0.6,0.7,1.398251,0,58.50338745,1.9166534,13,92,3,3,1,6,0.5,1
59, test,7, no_probe,25,4,3,3,4,0.7,0.6, right,2,0.3,0.4,0.6,0.7,1.001291,1, , ,14,93,1,2,1,6,0.5,1
59, test,8, no_probe,1,3,1,1,3,0.6,0.3, right,2,0.3,0.4,0.6,0.7,0.7839809,0, , ,0,93,1,3,1,6,0.5,1
59, test,8, no_probe,2,2,4,2,4,0.4,0.7, left,1,0.3,0.4,0.6,0.7,2.4704037,0, , ,0,93,2,3,1,6,0.5,1
59, test,8, probe,3,1,2,1,2,0.3,0.4, left,1,0.3,0.4,0.6,0.7,0.6615757,0,62.23522949,1.5329626,0,93,3,3,1,6,0.5,1
59, test,8, no_probe,4,4,1,1,4,0.7,0.3, right,2,0.3,0.4,0.6,0.7,1.2409624,1, , ,1,94,1,3,1,6,0.5,1
59, test,8, no_probe,5,2,4,4,2,0.4,0.7, right,2,0.3,0.4,0.6,0.7,1.3729556,0, , ,1,94,2,3,1,6,0.5,1
59, test,8, probe,6,4,1,1,4,0.7,0.3, right,2,0.3,0.4,0.6,0.7,0.8047285,0,57.69812012,2.1333188,1,94,3,3,1,6,0.5,1
59, test,8, no_probe,7,2,1,1,2,0.4,0.3, right,2,0.3,0.4,0.6,0.7,1.0303247,1, , ,2,95,1,2,1,6,0.5,1
59, test,8, probe,8,4,1,4,1,0.7,0.3, left,1,0.3,0.4,0.6,0.7,0.5298475,1,58.5262146,1.2000107,3,96,2,2,1,6,0.5,1
59, test,8, no_probe,9,3,4,3,4,0.6,0.7, left,1,0.3,0.4,0.6,0.7,0.6739755,0, , ,3,96,1,2,1,6,0.5,1
59, test,8, probe,10,3,4,4,3,0.6,0.7, right,2,0.3,0.4,0.6,0.7,0.9520138,0,58.25216675,1.1332995,3,96,2,2,1,6,0.5,1
59, test,8, no_probe,11,4,2,4,2,0.7,0.4, left,1,0.3,0.4,0.6,0.7,1.0279237,1, , ,4,97,1,3,1,6,0.5,1
59, test,8, no_probe,12,3,1,1,3,0.6,0.3, right,2,0.3,0.4,0.6,0.7,0.7601315,1, , ,5,98,2,3,1,6,0.5,1
59, test,8, probe,13,2,1,2,1,0.4,0.3, left,1,0.3,0.4,0.6,0.7,0.4316794,0,57.97250366,0.9333132,5,98,3,3,1,6,0.5,1
59, test,8, no_probe,14,4,1,4,1,0.7,0.3, left,1,0.3,0.4,0.6,0.7,0.4975665,1, , ,6,99,1,2,1,6,0.5,1
59, test,8, probe,15,2,1,2,1,0.4,0.3, left,1,0.3,0.4,0.6,0.7,0.8431107,0,58.78875732,1.2499878,6,99,2,2,1,6,0.5,1
59, test,8, no_probe,16,3,1,1,3,0.6,0.3, right,2,0.3,0.4,0.6,0.7,1.1243878,0, , ,6,99,1,3,1,6,0.5,1
59, test,8, no_probe,17,2,3,2,3,0.4,0.6, left,1,0.3,0.4,0.6,0.7,0.9917049,0, , ,6,99,2,3,1,6,0.5,1
59, test,8, probe,18,1,2,2,1,0.3,0.4, right,2,0.3,0.4,0.6,0.7,0.6306524,0,57.13644409,1.1999973,6,99,3,3,1,6,0.5,1
59, test,8, no_probe,19,4,1,1,4,0.7,0.3, right,2,0.3,0.4,0.6,0.7,1.7523851,1, , ,7,100,1,3,1,6,0.5,1
59, test,8, no_probe,20,4,1,4,1,0.7,0.3, left,1,0.3,0.4,0.6,0.7,0.935922,1, , ,8,101,2,3,1,6,0.5,1
59, test,8, probe,21,2,1,2,1,0.4,0.3, left,1,0.3,0.4,0.6,0.7,0.719729,0,65.18392944,1.5499635,8,101,3,3,1,6,0.5,1
59, test,8, no_probe,22,4,2,2,4,0.7,0.4, right,2,0.3,0.4,0.6,0.7,1.0937849,1, , ,9,102,1,3,1,6,0.5,1
59, test,8, no_probe,23,4,1,1,4,0.7,0.3, right,2,0.3,0.4,0.6,0.7,0.6155391,0, , ,9,102,2,3,1,6,0.5,1
59, test,8, probe,24,1,3,3,1,0.3,0.6, right,2,0.3,0.4,0.6,0.7,1.107846,0,62.64874268,1.2666625,9,102,3,3,1,6,0.5,1
59, test,8, no_probe,25,1,4,1,4,0.3,0.7, left,1,0.3,0.4,0.6,0.7,0.5822918,1, , ,10,103,1,3,1,6,0.5,1
