subject, block_type, block, thought probe, trial, chosen, unchosen, offer_left_image, offer_right_image, exp_value_chosen, exp_value_unchosen, choice_location, choice_key, exp_value1, exp_value2, exp_value3, exp_value4, RT, reward, vas, RT_vas, coins_per_block, coins_per_task, count_to_prob, ntrial_to_prob, ITI_duration,RT_deadline,choice_feedback_duration,outcome_duration
3, test, 1, no_probe, 1, 3, 4, 3, 4, 0.6, 0.7, left, 1, 0.3, 0.4, 0.6, 0.7, 0.8139818999916315, 0, , , 0.000000, 0.000000, 1.000000,2.000000,1.000000,6.000000,0.500000,1.000000
3, test, 1, probe, 2, 1, 4, 4, 1, 0.3, 0.7, right, 2, 0.3, 0.4, 0.6, 0.7, 0.6267912000184879, 1, 32.6812744140625, 7.0332428000401706, 1.000000, 1.000000, 2.000000,2.000000,1.000000,6.000000,0.500000,1.000000
3, test, 1, no_probe, 3, 2, 4, 4, 2, 0.4, 0.7, right, 2, 0.3, 0.4, 0.6, 0.7, 1.5124388999538496, 0, , , 1.000000, 1.000000, 1.000000,3.000000,1.000000,6.000000,0.500000,1.000000
3, test, 1, no_probe, 4, 3, 2, 3, 2, 0.6, 0.4, left, 1, 0.3, 0.4, 0.6, 0.7, 0.41383470001164824, 1, , , 2.000000, 2.000000, 2.000000,3.000000,1.000000,6.000000,0.500000,1.000000
3, test, 1, probe, 5, 3, 1, 1, 3, 0.6, 0.3, right, 2, 0.3, 0.4, 0.6, 0.7, 0.43360919994302094, 1, 71.37545776367188, 4.066627699998207, 3.000000, 3.000000, 3.000000,3.000000,1.000000,6.000000,0.500000,1.000000
3, test, 1, no_probe, 6, 3, 2, 2, 3, 0.6, 0.4, right, 2, 0.3, 0.4, 0.6, 0.7, 1.0017743000062183, 1, , , 4.000000, 4.000000, 1.000000,2.000000,1.000000,6.000000,0.500000,1.000000
3, test, 1, no_probe, 1, 4, 1, 4, 1, 0.7, 0.3, left, 1, 0.3, 0.4, 0.6, 0.7, 0.5092442999593914, 0, , , 0.000000, 4.000000, 1.000000,2.000000,1.000000,6.000000,0.500000,1.000000
3, test, 1, probe, 2, 3, 4, 4, 3, 0.6, 0.7, right, 2, 0.3, 0.4, 0.6, 0.7, 0.7464241000125185, 0, 73.89132690429688, 4.599930400028825, 0.000000, 4.000000, 2.000000,2.000000,1.000000,6.000000,0.500000,1.000000
3, test, 1, no_probe, 3, 1, 2, 1, 2, 0.3, 0.4, left, 1, 0.3, 0.4, 0.6, 0.7, 1.2555813000071794, 1, , , 1.000000, 5.000000, 1.000000,2.000000,1.000000,6.000000,0.500000,1.000000
3, test, 1, probe, 4, 1, 4, 1, 4, 0.3, 0.7, left, 1, 0.3, 0.4, 0.6, 0.7, 0.4396057999692857, 0, 98.216796875, 5.19993580004666, 1.000000, 5.000000, 2.000000,2.000000,1.000000,6.000000,0.500000,1.000000
3, test, 1, no_probe, 5, 3, 1, 1, 3, 0.6, 0.3, right, 2, 0.3, 0.4, 0.6, 0.7, 0.9346658999565989, 1, , , 2.000000, 6.000000, 1.000000,2.000000,1.000000,6.000000,0.500000,1.000000
3, test, 1, probe, 6, 2, 1, 2, 1, 0.4, 0.3, left, 1, 0.3, 0.4, 0.6, 0.7, 1.2108218000503257, 0, 73.23583984375, 3.6499066000105813, 2.000000, 6.000000, 2.000000,2.000000,1.000000,6.000000,0.500000,1.000000
3, test, 1, no_probe, 7, 4, 2, 2, 4, 0.7, 0.4, right, 2, 0.3, 0.4, 0.6, 0.7, 0.6276590999914333, 1, , , 3.000000, 7.000000, 1.000000,2.000000,1.000000,6.000000,0.500000,1.000000
3, test, 1, probe, 8, 4, 2, 2, 4, 0.7, 0.4, right, 2, 0.3, 0.4, 0.6, 0.7, 0.6007587000494823, 1, 95.28887939453125, 2.633255399996415, 4.000000, 8.000000, 2.000000,2.000000,1.000000,6.000000,0.500000,1.000000
3, test, 1, no_probe, 9, 3, 2, 3, 2, 0.6, 0.4, left, 1, 0.3, 0.4, 0.6, 0.7, 1.2840070000384003, 1, , , 5.000000, 9.000000, 1.000000,3.000000,1.000000,6.000000,0.500000,1.000000
3, test, 1, no_probe, 10, 3, 2, 3, 2, 0.6, 0.4, left, 1, 0.3, 0.4, 0.6, 0.7, 0.4250052000861615, 1, , , 6.000000, 10.000000, 2.000000,3.000000,1.000000,6.000000,0.500000,1.000000
3, test, 1, probe, 11, 3, 1, 1, 3, 0.6, 0.3, right, 2, 0.3, 0.4, 0.6, 0.7, 0.6503822000231594, 0, 96.0865478515625, 4.466574100079015, 6.000000, 10.000000, 3.000000,3.000000,1.000000,6.000000,0.500000,1.000000
3, test, 1, no_probe, 12, 2, 4, 2, 4, 0.4, 0.7, left, 1, 0.3, 0.4, 0.6, 0.7, 1.1529607999837026, 1, , , 7.000000, 11.000000, 1.000000,2.000000,1.000000,6.000000,0.500000,1.000000
3, test, 1, probe, 13, 3, 1, 1, 3, 0.6, 0.3, right, 2, 0.3, 0.4, 0.6, 0.7, 0.4610036000376567, 1, 99.99908447265625, 2.783308499958366, 8.000000, 12.000000, 2.000000,2.000000,1.000000,6.000000,0.500000,1.000000
3, test, 1, no_probe, 14, 3, 2, 3, 2, 0.6, 0.4, left, 1, 0.3, 0.4, 0.6, 0.7, 1.0283342000329867, 1, , , 9.000000, 13.000000, 1.000000,2.000000,1.000000,6.000000,0.500000,1.000000
3, test, 1, probe, 15, 1, 2, 2, 1, 0.3, 0.4, right, 2, 0.3, 0.4, 0.6, 0.7, 0.539864799939096, 0, 70.86874389648438, 3.849915700033307, 9.000000, 13.000000, 2.000000,2.000000,1.000000,6.000000,0.500000,1.000000
3, test, 1, no_probe, 16, 1, 4, 1, 4, 0.3, 0.7, left, 1, 0.3, 0.4, 0.6, 0.7, 0.7324088000459597, 0, , , 9.000000, 13.000000, 1.000000,3.000000,1.000000,6.000000,0.500000,1.000000
3, test, 1, no_probe, 17, 2, 1, 1, 2, 0.4, 0.3, right, 2, 0.3, 0.4, 0.6, 0.7, 1.245156400022097, 0, , , 9.000000, 13.000000, 2.000000,3.000000,1.000000,6.000000,0.500000,1.000000
3, test, 1, probe, 18, 4, 3, 4, 3, 0.7, 0.6, left, 1, 0.3, 0.4, 0.6, 0.7, 0.6404998000944033, 0, 93.98599243164062, 3.7499631999526173, 9.000000, 13.000000, 3.000000,3.000000,1.000000,6.000000,0.500000,1.000000
3, test, 1, no_probe, 19, 3, 1, 1, 3, 0.6, 0.3, right, 2, 0.3, 0.4, 0.6, 0.7, 0.6486426999326795, 1, , , 10.000000, 14.000000, 1.000000,2.000000,1.000000,6.000000,0.500000,1.000000
3, test, 1, probe, 20, 1, 2, 1, 2, 0.3, 0.4, left, 1, 0.3, 0.4, 0.6, 0.7, 0.4478978000115603, 1, 86.16610717773438, 1.4499169000191614, 11.000000, 15.000000, 2.000000,2.000000,1.000000,6.000000,0.500000,1.000000
3, test, 1, no_probe, 21, 1, 2, 2, 1, 0.3, 0.4, right, 2, 0.3, 0.4, 0.6, 0.7, 0.7198425999376923, 0, , , 11.000000, 15.000000, 1.000000,3.000000,1.000000,6.000000,0.500000,1.000000
3, test, 1, no_probe, 22, 4, 3, 3, 4, 0.7, 0.6, right, 2, 0.3, 0.4, 0.6, 0.7, 0.4656216000439599, 1, , , 12.000000, 16.000000, 2.000000,3.000000,1.000000,6.000000,0.500000,1.000000
3, test, 1, probe, 23, 2, 1, 1, 2, 0.4, 0.3, right, 2, 0.3, 0.4, 0.6, 0.7, 0.5872619000729173, 0, 82.04647827148438, 1.5999978000763804, 12.000000, 16.000000, 3.000000,3.000000,1.000000,6.000000,0.500000,1.000000
3, test, 1, no_probe, 24, 3, 2, 3, 2, 0.6, 0.4, left, 1, 0.3, 0.4, 0.6, 0.7, 0.9481817000778392, 0, , , 12.000000, 16.000000, 1.000000,3.000000,1.000000,6.000000,0.500000,1.000000
3, test, 1, no_probe, 25, 4, 1, 1, 4, 0.7, 0.3, right, 2, 0.3, 0.4, 0.6, 0.7, 0.3796831000363454, 1, , , 13.000000, 17.000000, 2.000000,3.000000,1.000000,6.000000,0.500000,1.000000
3, test, 2, no_probe, 1, 4, 3, 3, 4, 0.7, 0.6, right, 2, 0.3, 0.4, 0.6, 0.7, 0.4227668000385165, 0, , , 0.000000, 17.000000, 1.000000,3.000000,1.000000,6.000000,0.500000,1.000000
3, test, 2, no_probe, 2, 3, 1, 3, 1, 0.6, 0.3, left, 1, 0.3, 0.4, 0.6, 0.7, 0.5641211000038311, 1, , , 1.000000, 18.000000, 2.000000,3.000000,1.000000,6.000000,0.500000,1.000000
3, test, 2, probe, 3, 3, 4, 3, 4, 0.6, 0.7, left, 1, 0.3, 0.4, 0.6, 0.7, 0.6608313000760972, 1, 98.24664306640625, 3.3999636000953615, 2.000000, 19.000000, 3.000000,3.000000,1.000000,6.000000,0.500000,1.000000
3, test, 2, no_probe, 4, 3, 4, 3, 4, 0.6, 0.7, left, 1, 0.3, 0.4, 0.6, 0.7, 0.6392762999748811, 0, , , 2.000000, 19.000000, 1.000000,3.000000,1.000000,6.000000,0.500000,1.000000
3, test, 2, no_probe, 5, 3, 1, 3, 1, 0.6, 0.3, left, 1, 0.3, 0.4, 0.6, 0.7, 0.5126740999985486, 0, , , 2.000000, 19.000000, 2.000000,3.000000,1.000000,6.000000,0.500000,1.000000
3, test, 2, probe, 6, 4, 3, 3, 4, 0.7, 0.6, right, 2, 0.3, 0.4, 0.6, 0.7, 0.461119000101462, 1, 99.99945068359375, 2.6833115000044927, 3.000000, 20.000000, 3.000000,3.000000,1.000000,6.000000,0.500000,1.000000
3, test, 2, no_probe, 7, 2, 4, 2, 4, 0.4, 0.7, left, 1, 0.3, 0.4, 0.6, 0.7, 1.3225213999394327, 0, , , 3.000000, 20.000000, 1.000000,3.000000,1.000000,6.000000,0.500000,1.000000
3, test, 2, no_probe, 8, 1, 2, 1, 2, 0.3, 0.4, left, 1, 0.3, 0.4, 0.6, 0.7, 0.7641144000226632, 1, , , 4.000000, 21.000000, 2.000000,3.000000,1.000000,6.000000,0.500000,1.000000
3, test, 2, probe, 9, 4, 2, 2, 4, 0.7, 0.4, right, 2, 0.3, 0.4, 0.6, 0.7, 0.4503368000732735, 1, 99.99905395507812, 2.2666638999944553, 5.000000, 22.000000, 3.000000,3.000000,1.000000,6.000000,0.500000,1.000000
3, test, 2, no_probe, 10, 2, 4, 4, 2, 0.4, 0.7, right, 2, 0.3, 0.4, 0.6, 0.7, 1.7429785000858828, 1, , , 6.000000, 23.000000, 1.000000,2.000000,1.000000,6.000000,0.500000,1.000000
3, test, 2, probe, 11, 2, 4, 2, 4, 0.4, 0.7, left, 1, 0.3, 0.4, 0.6, 0.7, 0.40954679995775223, 0, 89.81204223632812, 2.466635699965991, 6.000000, 23.000000, 2.000000,2.000000,1.000000,6.000000,0.500000,1.000000
3, test, 2, no_probe, 12, 3, 1, 3, 1, 0.6, 0.3, left, 1, 0.3, 0.4, 0.6, 0.7, 0.6397958999732509, 1, , , 7.000000, 24.000000, 1.000000,2.000000,1.000000,6.000000,0.500000,1.000000
3, test, 2, probe, 13, 1, 2, 2, 1, 0.3, 0.4, right, 2, 0.3, 0.4, 0.6, 0.7, 0.3877160999691114, 0, 89.2115478515625, 2.316583800013177, 7.000000, 24.000000, 2.000000,2.000000,1.000000,6.000000,0.500000,1.000000
3, test, 2, no_probe, 14, 3, 2, 3, 2, 0.6, 0.4, left, 1, 0.3, 0.4, 0.6, 0.7, 0.6559859000844881, 1, , , 8.000000, 25.000000, 1.000000,3.000000,1.000000,6.000000,0.500000,1.000000
3, test, 2, no_probe, 15, 2, 4, 4, 2, 0.4, 0.7, right, 2, 0.3, 0.4, 0.6, 0.7, 0.5079282999504358, 0, , , 8.000000, 25.000000, 2.000000,3.000000,1.000000,6.000000,0.500000,1.000000
3, test, 2, probe, 16, 3, 1, 3, 1, 0.6, 0.3, left, 1, 0.3, 0.4, 0.6, 0.7, 0.5689979000017047, 1, 99.999267578125, 2.6666149999946356, 9.000000, 26.000000, 3.000000,3.000000,1.000000,6.000000,0.500000,1.000000
3, test, 2, no_probe, 17, 2, 4, 2, 4, 0.4, 0.7, left, 1, 0.3, 0.4, 0.6, 0.7, 0.8838315000757575, 0, , , 9.000000, 26.000000, 1.000000,2.000000,1.000000,6.000000,0.500000,1.000000
3, test, 2, probe, 18, 4, 2, 2, 4, 0.7, 0.4, right, 2, 0.3, 0.4, 0.6, 0.7, 0.6500807999400422, 1, 93.15939331054688, 1.9499768000096083, 10.000000, 27.000000, 2.000000,2.000000,1.000000,6.000000,0.500000,1.000000
3, test, 2, no_probe, 19, 2, 4, 2, 4, 0.4, 0.7, left, 1, 0.3, 0.4, 0.6, 0.7, 1.0448825999628752, 1, , , 11.000000, 28.000000, 1.000000,3.000000,1.000000,6.000000,0.500000,1.000000
3, test, 2, no_probe, 20, 2, 3, 3, 2, 0.4, 0.6, right, 2, 0.3, 0.4, 0.6, 0.7, 0.4767944000195712, 0, , , 11.000000, 28.000000, 2.000000,3.000000,1.000000,6.000000,0.500000,1.000000
3, test, 2, probe, 21, 3, 1, 3, 1, 0.6, 0.3, left, 1, 0.3, 0.4, 0.6, 0.7, 0.2202516000252217, 0, 85.1590576171875, 2.099955699988641, 11.000000, 28.000000, 3.000000,3.000000,1.000000,6.000000,0.500000,1.000000
3, test, 2, no_probe, 22, 2, 4, 4, 2, 0.4, 0.7, right, 2, 0.3, 0.4, 0.6, 0.7, 0.5267311000498012, 1, , , 12.000000, 29.000000, 1.000000,2.000000,1.000000,6.000000,0.500000,1.000000
3, test, 2, probe, 23, 2, 3, 2, 3, 0.4, 0.6, left, 1, 0.3, 0.4, 0.6, 0.7, 0.36371850001160055, 0, 26.478240966796875, 4.16661459999159, 12.000000, 29.000000, 2.000000,2.000000,1.000000,6.000000,0.500000,1.000000
3, test, 2, no_probe, 24, 2, 4, 2, 4, 0.4, 0.7, left, 1, 0.3, 0.4, 0.6, 0.7, 0.5784890000941232, 0, , , 12.000000, 29.000000, 1.000000,2.000000,1.000000,6.000000,0.500000,1.000000
3, test, 2, probe, 25, 1, 4, 4, 1, 0.3, 0.7, right, 2, 0.3, 0.4, 0.6, 0.7, 0.8763090000720695, 0, 60.836212158203125, 4.1832584999501705, 12.000000, 29.000000, 2.000000,2.000000,1.000000,6.000000,0.500000,1.000000
3, test, 3, no_probe, 1, 2, 4, 2, 4, 0.4, 0.7, left, 1, 0.3, 0.4, 0.6, 0.7, 0.5418282999889925, 0, , , 0.000000, 29.000000, 1.000000,2.000000,1.000000,6.000000,0.500000,1.000000
3, test, 3, probe, 2, 2, 4, 4, 2, 0.4, 0.7, right, 2, 0.3, 0.4, 0.6, 0.7, 0.4746447999496013, 0, 99.75588989257812, 3.2332931000273675, 0.000000, 29.000000, 2.000000,2.000000,1.000000,6.000000,0.500000,1.000000
3, test, 3, no_probe, 3, 2, 1, 2, 1, 0.4, 0.3, left, 1, 0.3, 0.4, 0.6, 0.7, 0.5387859999900684, 1, , , 1.000000, 30.000000, 1.000000,2.000000,1.000000,6.000000,0.500000,1.000000
3, test, 3, probe, 4, 3, 1, 1, 3, 0.6, 0.3, right, 2, 0.3, 0.4, 0.6, 0.7, 1.2057083999970928, 1, 97.70907592773438, 2.449979600030929, 2.000000, 31.000000, 2.000000,2.000000,1.000000,6.000000,0.500000,1.000000
3, test, 3, no_probe, 5, 1, 2, 1, 2, 0.3, 0.4, left, 1, 0.3, 0.4, 0.6, 0.7, 0.6758591000689194, 0, , , 2.000000, 31.000000, 1.000000,2.000000,1.000000,6.000000,0.500000,1.000000
3, test, 3, probe, 6, 3, 4, 3, 4, 0.6, 0.7, left, 1, 0.3, 0.4, 0.6, 0.7, 0.48657660000026226, 1, 26.368988037109375, 3.23328429996036, 3.000000, 32.000000, 2.000000,2.000000,1.000000,6.000000,0.500000,1.000000
3, test, 3, no_probe, 7, 2, 4, 4, 2, 0.4, 0.7, right, 2, 0.3, 0.4, 0.6, 0.7, 0.7789320999290794, 1, , , 4.000000, 33.000000, 1.000000,3.000000,1.000000,6.000000,0.500000,1.000000
3, test, 3, no_probe, 8, 2, 4, 2, 4, 0.4, 0.7, left, 1, 0.3, 0.4, 0.6, 0.7, 0.5929479000624269, 0, , , 4.000000, 33.000000, 2.000000,3.000000,1.000000,6.000000,0.500000,1.000000
3, test, 3, probe, 9, 3, 1, 3, 1, 0.6, 0.3, left, 1, 0.3, 0.4, 0.6, 0.7, 0.6899666000390425, 0, 29.60345458984375, 2.616608800017275, 4.000000, 33.000000, 3.000000,3.000000,1.000000,6.000000,0.500000,1.000000
3, test, 3, no_probe, 10, 3, 1, 3, 1, 0.6, 0.3, left, 1, 0.3, 0.4, 0.6, 0.7, 0.5340202000224963, 1, , , 5.000000, 34.000000, 1.000000,2.000000,1.000000,6.000000,0.500000,1.000000
3, test, 3, probe, 11, 4, 1, 1, 4, 0.7, 0.3, right, 2, 0.3, 0.4, 0.6, 0.7, 1.4073190999915823, 1, 92.24191284179688, 1.883307799929753, 6.000000, 35.000000, 2.000000,2.000000,1.000000,6.000000,0.500000,1.000000
3, test, 3, no_probe, 12, 2, 1, 2, 1, 0.4, 0.3, left, 1, 0.3, 0.4, 0.6, 0.7, 1.0879218999762088, 0, , , 6.000000, 35.000000, 1.000000,3.000000,1.000000,6.000000,0.500000,1.000000
3, test, 3, no_probe, 13, 1, 3, 3, 1, 0.3, 0.6, right, 2, 0.3, 0.4, 0.6, 0.7, 0.306409899960272, 1, , , 7.000000, 36.000000, 2.000000,3.000000,1.000000,6.000000,0.500000,1.000000
3, test, 3, probe, 14, 1, 4, 1, 4, 0.3, 0.7, left, 1, 0.3, 0.4, 0.6, 0.7, 0.9795289000030607, 0, 99.99978637695312, 2.0499368999153376, 7.000000, 36.000000, 3.000000,3.000000,1.000000,6.000000,0.500000,1.000000
3, test, 3, no_probe, 15, 4, 3, 3, 4, 0.7, 0.6, right, 2, 0.3, 0.4, 0.6, 0.7, 0.5330381999956444, 1, , , 8.000000, 37.000000, 1.000000,3.000000,1.000000,6.000000,0.500000,1.000000
3, test, 3, no_probe, 16, 3, 1, 1, 3, 0.6, 0.3, right, 2, 0.3, 0.4, 0.6, 0.7, 1.0182725000195205, 0, , , 8.000000, 37.000000, 2.000000,3.000000,1.000000,6.000000,0.500000,1.000000
3, test, 3, probe, 17, 2, 3, 2, 3, 0.4, 0.6, left, 1, 0.3, 0.4, 0.6, 0.7, 0.5697593999793753, 0, 25.833465576171875, 2.299964200006798, 8.000000, 37.000000, 3.000000,3.000000,1.000000,6.000000,0.500000,1.000000
3, test, 3, no_probe, 18, 3, 1, 1, 3, 0.6, 0.3, right, 2, 0.3, 0.4, 0.6, 0.7, 0.7279817999806255, 0, , , 8.000000, 37.000000, 1.000000,3.000000,1.000000,6.000000,0.500000,1.000000
3, test, 3, no_probe, 19, 3, 4, 3, 4, 0.6, 0.7, left, 1, 0.3, 0.4, 0.6, 0.7, 0.7475743999239057, 0, , , 8.000000, 37.000000, 2.000000,3.000000,1.000000,6.000000,0.500000,1.000000
3, test, 3, probe, 20, 4, 2, 2, 4, 0.7, 0.4, right, 2, 0.3, 0.4, 0.6, 0.7, 0.41449680004734546, 0, 33.7677001953125, 1.1666135000996292, 8.000000, 37.000000, 3.000000,3.000000,1.000000,6.000000,0.500000,1.000000
3, test, 3, no_probe, 21, 2, 4, 2, 4, 0.4, 0.7, left, 1, 0.3, 0.4, 0.6, 0.7, 0.5569398000370711, 0, , , 8.000000, 37.000000, 1.000000,2.000000,1.000000,6.000000,0.500000,1.000000
3, test, 3, probe, 22, 3, 2, 2, 3, 0.6, 0.4, right, 2, 0.3, 0.4, 0.6, 0.7, 0.4315588000463322, 1, 99.99859619140625, 2.98333959991578, 9.000000, 38.000000, 2.000000,2.000000,1.000000,6.000000,0.500000,1.000000
3, test, 3, no_probe, 23, 4, 1, 4, 1, 0.7, 0.3, left, 1, 0.3, 0.4, 0.6, 0.7, 1.5176753998966888, 1, , , 10.000000, 39.000000, 1.000000,3.000000,1.000000,6.000000,0.500000,1.000000
3, test, 3, no_probe, 24, 1, 2, 2, 1, 0.3, 0.4, right, 2, 0.3, 0.4, 0.6, 0.7, 1.2471656000707299, 0, , , 10.000000, 39.000000, 2.000000,3.000000,1.000000,6.000000,0.500000,1.000000
3, test, 3, probe, 25, 4, 1, 1, 4, 0.7, 0.3, right, 2, 0.3, 0.4, 0.6, 0.7, 1.0055030999938026, 1, 89.14654541015625, 1.583330300054513, 11.000000, 40.000000, 3.000000,3.000000,1.000000,6.000000,0.500000,1.000000
3, test, 4, no_probe, 1, 4, 2, 4, 2, 0.7, 0.4, left, 1, 0.3, 0.4, 0.6, 0.7, 0.49557179992552847, 1, , , 1.000000, 41.000000, 1.000000,2.000000,1.000000,6.000000,0.500000,1.000000
3, test, 4, probe, 2, 3, 2, 2, 3, 0.6, 0.4, right, 2, 0.3, 0.4, 0.6, 0.7, 0.4607570000225678, 0, 97.16299438476562, 2.033320799935609, 1.000000, 41.000000, 2.000000,2.000000,1.000000,6.000000,0.500000,1.000000
3, test, 4, no_probe, 3, 1, 4, 4, 1, 0.3, 0.7, right, 2, 0.3, 0.4, 0.6, 0.7, 0.5142291000811383, 1, , , 2.000000, 42.000000, 1.000000,2.000000,1.000000,6.000000,0.500000,1.000000
3, test, 4, probe, 4, 3, 2, 3, 2, 0.6, 0.4, left, 1, 0.3, 0.4, 0.6, 0.7, 0.002120399964042008, 0, 33.829559326171875, 1.8166843000799417, 2.000000, 42.000000, 2.000000,2.000000,1.000000,6.000000,0.500000,1.000000
3, test, 4, no_probe, 5, 3, 4, 3, 4, 0.6, 0.7, left, 1, 0.3, 0.4, 0.6, 0.7, 0.5173238000134006, 1, , , 3.000000, 43.000000, 1.000000,2.000000,1.000000,6.000000,0.500000,1.000000
3, test, 4, probe, 6, 1, 4, 4, 1, 0.3, 0.7, right, 2, 0.3, 0.4, 0.6, 0.7, 0.7743260000133887, 0, 93.51052856445312, 2.766620200010948, 3.000000, 43.000000, 2.000000,2.000000,1.000000,6.000000,0.500000,1.000000
3, test, 4, no_probe, 7, 4, 2, 4, 2, 0.7, 0.4, left, 1, 0.3, 0.4, 0.6, 0.7, 0.5330988999921829, 1, , , 4.000000, 44.000000, 1.000000,2.000000,1.000000,6.000000,0.500000,1.000000
3, test, 4, probe, 8, 4, 2, 2, 4, 0.7, 0.4, right, 2, 0.3, 0.4, 0.6, 0.7, 0.584243300021626, 0, 99.99966430664062, 2.0333186000352725, 4.000000, 44.000000, 2.000000,2.000000,1.000000,6.000000,0.500000,1.000000
3, test, 4, no_probe, 9, 1, 3, 1, 3, 0.3, 0.6, left, 1, 0.3, 0.4, 0.6, 0.7, 0.5915839999215677, 0, , , 4.000000, 44.000000, 1.000000,3.000000,1.000000,6.000000,0.500000,1.000000
3, test, 4, no_probe, 10, 2, 1, 2, 1, 0.4, 0.3, left, 1, 0.3, 0.4, 0.6, 0.7, 0.8419497000286356, 0, , , 4.000000, 44.000000, 2.000000,3.000000,1.000000,6.000000,0.500000,1.000000
3, test, 4, probe, 11, 4, 2, 2, 4, 0.7, 0.4, right, 2, 0.3, 0.4, 0.6, 0.7, 0.6545275999233127, 1, 84.57553100585938, 1.6333441999740899, 5.000000, 45.000000, 3.000000,3.000000,1.000000,6.000000,0.500000,1.000000
3, test, 4, no_probe, 12, 4, 2, 2, 4, 0.7, 0.4, right, 2, 0.3, 0.4, 0.6, 0.7, 0.8425337000517175, 1, , , 6.000000, 46.000000, 1.000000,3.000000,1.000000,6.000000,0.500000,1.000000
3, test, 4, no_probe, 13, 4, 3, 3, 4, 0.7, 0.6, right, 2, 0.3, 0.4, 0.6, 0.7, 0.6985128000378609, 0, , , 6.000000, 46.000000, 2.000000,3.000000,1.000000,6.000000,0.500000,1.000000
3, test, 4, probe, 14, 2, 1, 2, 1, 0.4, 0.3, left, 1, 0.3, 0.4, 0.6, 0.7, 0.5601509000407532, 1, 81.06057739257812, 1.6332895000232384, 7.000000, 47.000000, 3.000000,3.000000,1.000000,6.000000,0.500000,1.000000
3, test, 4, no_probe, 15, 1, 4, 4, 1, 0.3, 0.7, right, 2, 0.3, 0.4, 0.6, 0.7, 0.5491021000780165, 0, , , 7.000000, 47.000000, 1.000000,3.000000,1.000000,6.000000,0.500000,1.000000
3, test, 4, no_probe, 16, 3, 4, 3, 4, 0.6, 0.7, left, 1, 0.3, 0.4, 0.6, 0.7, 0.6397452999372035, 0, , , 7.000000, 47.000000, 2.000000,3.000000,1.000000,6.000000,0.500000,1.000000
3, test, 4, probe, 17, 4, 3, 3, 4, 0.7, 0.6, right, 2, 0.3, 0.4, 0.6, 0.7, 0.6047245999798179, 1, 1, 7.1332873000064865, 8.000000, 48.000000, 3.000000,3.000000,1.000000,6.000000,0.500000,1.000000
3, test, 4, no_probe, 18, 2, 4, 4, 2, 0.4, 0.7, right, 2, 0.3, 0.4, 0.6, 0.7, 0.7469883000012487, 0, , , 8.000000, 48.000000, 1.000000,3.000000,1.000000,6.000000,0.500000,1.000000
3, test, 4, no_probe, 19, 3, 2, 3, 2, 0.6, 0.4, left, 1, 0.3, 0.4, 0.6, 0.7, 0.9791542000602931, 1, , , 9.000000, 49.000000, 2.000000,3.000000,1.000000,6.000000,0.500000,1.000000
3, test, 4, probe, 20, 3, 2, 2, 3, 0.6, 0.4, right, 2, 0.3, 0.4, 0.6, 0.7, 0.6883068999741226, 1, 88.72161865234375, 3.266614899970591, 10.000000, 50.000000, 3.000000,3.000000,1.000000,6.000000,0.500000,1.000000
3, test, 4, no_probe, 21, 3, 2, 2, 3, 0.6, 0.4, right, 2, 0.3, 0.4, 0.6, 0.7, 0.750735400011763, 1, , , 11.000000, 51.000000, 1.000000,3.000000,1.000000,6.000000,0.500000,1.000000
3, test, 4, no_probe, 22, 4, 1, 4, 1, 0.7, 0.3, left, 1, 0.3, 0.4, 0.6, 0.7, 0.4190181000158191, 1, , , 12.000000, 52.000000, 2.000000,3.000000,1.000000,6.000000,0.500000,1.000000
3, test, 4, probe, 23, 2, 1, 1, 2, 0.4, 0.3, right, 2, 0.3, 0.4, 0.6, 0.7, 0.38768189994152635, 0, 70.9490966796875, 1.683281800011173, 12.000000, 52.000000, 3.000000,3.000000,1.000000,6.000000,0.500000,1.000000
3, test, 4, no_probe, 24, 4, 3, 3, 4, 0.7, 0.6, right, 2, 0.3, 0.4, 0.6, 0.7, 0.34906050004065037, 0, , , 12.000000, 52.000000, 1.000000,3.000000,1.000000,6.000000,0.500000,1.000000
3, test, 4, no_probe, 25, 1, 2, 2, 1, 0.3, 0.4, right, 2, 0.3, 0.4, 0.6, 0.7, 0.7317358999280259, 0, , , 12.000000, 52.000000, 2.000000,3.000000,1.000000,6.000000,0.500000,1.000000
3, test, 5, no_probe, 1, 1, 2, 2, 1, 0.3, 0.4, right, 2, 0.3, 0.4, 0.6, 0.7, 0.6365290000103414, 0, , , 0.000000, 52.000000, 1.000000,3.000000,1.000000,6.000000,0.500000,1.000000
3, test, 5, no_probe, 2, 1, 2, 1, 2, 0.3, 0.4, left, 1, 0.3, 0.4, 0.6, 0.7, 0.36053439998067915, 0, , , 0.000000, 52.000000, 2.000000,3.000000,1.000000,6.000000,0.500000,1.000000
3, test, 5, probe, 3, 2, 1, 2, 1, 0.4, 0.3, left, 1, 0.3, 0.4, 0.6, 0.7, 0.5454571000300348, 0, 99.99746704101562, 4.98292290000245, 0.000000, 52.000000, 3.000000,3.000000,1.000000,6.000000,0.500000,1.000000
3, test, 5, no_probe, 4, 4, 1, 1, 4, 0.7, 0.3, right, 2, 0.3, 0.4, 0.6, 0.7, 0.9276376999914646, 1, , , 1.000000, 53.000000, 1.000000,2.000000,1.000000,6.000000,0.500000,1.000000
3, test, 5, probe, 5, 4, 1, 1, 4, 0.7, 0.3, right, 2, 0.3, 0.4, 0.6, 0.7, 0.6799729999620467, 1, 99.99984741210938, 1.7666243000421673, 2.000000, 54.000000, 2.000000,2.000000,1.000000,6.000000,0.500000,1.000000
3, test, 5, no_probe, 6, 4, 3, 3, 4, 0.7, 0.6, right, 2, 0.3, 0.4, 0.6, 0.7, 0.6298117999685928, 1, , , 3.000000, 55.000000, 1.000000,2.000000,1.000000,6.000000,0.500000,1.000000
3, test, 5, probe, 7, 2, 1, 1, 2, 0.4, 0.3, right, 2, 0.3, 0.4, 0.6, 0.7, 1.3005542000755668, 0, 99.99972534179688, 2.0832425999687985, 3.000000, 55.000000, 2.000000,2.000000,1.000000,6.000000,0.500000,1.000000
3, test, 5, no_probe, 8, 3, 2, 2, 3, 0.6, 0.4, right, 2, 0.3, 0.4, 0.6, 0.7, 0.8150479999603704, 1, , , 4.000000, 56.000000, 1.000000,2.000000,1.000000,6.000000,0.500000,1.000000
3, test, 5, probe, 9, 3, 1, 1, 3, 0.6, 0.3, right, 2, 0.3, 0.4, 0.6, 0.7, 1.1422490000259131, 1, 99.99880981445312, 2.2666234000353143, 5.000000, 57.000000, 2.000000,2.000000,1.000000,6.000000,0.500000,1.000000
3, test, 5, no_probe, 10, 2, 3, 2, 3, 0.4, 0.6, left, 1, 0.3, 0.4, 0.6, 0.7, 0.3991487000603229, 1, , , 6.000000, 58.000000, 1.000000,2.000000,1.000000,6.000000,0.500000,1.000000
3, test, 5, probe, 11, 2, 4, 4, 2, 0.4, 0.7, right, 2, 0.3, 0.4, 0.6, 0.7, 0.7839625999331474, 1, 99.99899291992188, 2.2332625999115407, 7.000000, 59.000000, 2.000000,2.000000,1.000000,6.000000,0.500000,1.000000
3, test, 5, no_probe, 12, 4, 3, 4, 3, 0.7, 0.6, left, 1, 0.3, 0.4, 0.6, 0.7, 0.8760789999505505, 1, , , 8.000000, 60.000000, 1.000000,3.000000,1.000000,6.000000,0.500000,1.000000
3, test, 5, no_probe, 13, 3, 1, 3, 1, 0.6, 0.3, left, 1, 0.3, 0.4, 0.6, 0.7, 1.015183899900876, 1, , , 9.000000, 61.000000, 2.000000,3.000000,1.000000,6.000000,0.500000,1.000000
3, test, 5, probe, 14, 4, 1, 1, 4, 0.7, 0.3, right, 2, 0.3, 0.4, 0.6, 0.7, 0.8394219999900088, 1, 99.99862670898438, 2.233229599893093, 10.000000, 62.000000, 3.000000,3.000000,1.000000,6.000000,0.500000,1.000000
3, test, 5, no_probe, 15, 4, 1, 1, 4, 0.7, 0.3, right, 2, 0.3, 0.4, 0.6, 0.7, 2.0534781999886036, 1, , , 11.000000, 63.000000, 1.000000,2.000000,1.000000,6.000000,0.500000,1.000000
3, test, 5, probe, 16, 2, 1, 2, 1, 0.4, 0.3, left, 1, 0.3, 0.4, 0.6, 0.7, 1.4927163000684232, 1, 99.9981689453125, 2.6999511999310926, 12.000000, 64.000000, 2.000000,2.000000,1.000000,6.000000,0.500000,1.000000
3, test, 5, no_probe, 17, 2, 3, 2, 3, 0.4, 0.6, left, 1, 0.3, 0.4, 0.6, 0.7, 1.2686804999830201, 1, , , 13.000000, 65.000000, 1.000000,2.000000,1.000000,6.000000,0.500000,1.000000
3, test, 5, probe, 18, 4, 2, 4, 2, 0.7, 0.4, left, 1, 0.3, 0.4, 0.6, 0.7, 1.018947699922137, 1, 99.99859619140625, 2.1666509000351653, 14.000000, 66.000000, 2.000000,2.000000,1.000000,6.000000,0.500000,1.000000
3, test, 5, no_probe, 19, 4, 3, 4, 3, 0.7, 0.6, left, 1, 0.3, 0.4, 0.6, 0.7, 1.067975299898535, 0, , , 14.000000, 66.000000, 1.000000,2.000000,1.000000,6.000000,0.500000,1.000000
3, test, 5, probe, 20, 4, 2, 2, 4, 0.7, 0.4, right, 2, 0.3, 0.4, 0.6, 0.7, 1.0590361000504345, 0, 93.75973510742188, 2.7999670000281185, 14.000000, 66.000000, 2.000000,2.000000,1.000000,6.000000,0.500000,1.000000
3, test, 5, no_probe, 21, 4, 2, 2, 4, 0.7, 0.4, right, 2, 0.3, 0.4, 0.6, 0.7, 1.048259099945426, 1, , , 15.000000, 67.000000, 1.000000,2.000000,1.000000,6.000000,0.500000,1.000000
3, test, 5, probe, 22, 3, 1, 3, 1, 0.6, 0.3, left, 1, 0.3, 0.4, 0.6, 0.7, 0.9160175999859348, 1, 99.9991455078125, 2.0333272999851033, 16.000000, 68.000000, 2.000000,2.000000,1.000000,6.000000,0.500000,1.000000
3, test, 5, no_probe, 23, 2, 3, 3, 2, 0.4, 0.6, right, 2, 0.3, 0.4, 0.6, 0.7, 1.1295849999878556, 1, , , 17.000000, 69.000000, 1.000000,2.000000,1.000000,6.000000,0.500000,1.000000
3, test, 5, probe, 24, 3, 2, 3, 2, 0.6, 0.4, left, 1, 0.3, 0.4, 0.6, 0.7, 1.2352562000742182, 0, 99.99917602539062, 2.033281800104305, 17.000000, 69.000000, 2.000000,2.000000,1.000000,6.000000,0.500000,1.000000
3, test, 5, no_probe, 25, 4, 3, 3, 4, 0.7, 0.6, right, 2, 0.3, 0.4, 0.6, 0.7, 0.6442985000321642, 1, , , 18.000000, 70.000000, 1.000000,2.000000,1.000000,6.000000,0.500000,1.000000
3, test, 6, no_probe, 1, 2, 4, 2, 4, 0.4, 0.7, left, 1, 0.3, 0.4, 0.6, 0.7, 0.3815613000188023, 0, , , 0.000000, 70.000000, 1.000000,2.000000,1.000000,6.000000,0.500000,1.000000
3, test, 6, probe, 2, 4, 3, 3, 4, 0.7, 0.6, right, 2, 0.3, 0.4, 0.6, 0.7, 0.47256379993632436, 1, 92.6904296875, 2.449962400016375, 1.000000, 71.000000, 2.000000,2.000000,1.000000,6.000000,0.500000,1.000000
3, test, 6, no_probe, 3, 1, 2, 1, 2, 0.3, 0.4, left, 1, 0.3, 0.4, 0.6, 0.7, 1.0999183999374509, 0, , , 1.000000, 71.000000, 1.000000,2.000000,1.000000,6.000000,0.500000,1.000000
3, test, 6, probe, 4, 2, 4, 4, 2, 0.4, 0.7, right, 2, 0.3, 0.4, 0.6, 0.7, 0.9282913999632001, 1, 77.2877197265625, 2.049956199945882, 2.000000, 72.000000, 2.000000,2.000000,1.000000,6.000000,0.500000,1.000000
3, test, 6, no_probe, 5, 1, 4, 1, 4, 0.3, 0.7, left, 1, 0.3, 0.4, 0.6, 0.7, 0.5980182000203058, 0, , , 2.000000, 72.000000, 1.000000,3.000000,1.000000,6.000000,0.500000,1.000000
3, test, 6, no_probe, 6, 3, 2, 2, 3, 0.6, 0.4, right, 2, 0.3, 0.4, 0.6, 0.7, 0.426609699963592, 1, , , 3.000000, 73.000000, 2.000000,3.000000,1.000000,6.000000,0.500000,1.000000
3, test, 6, probe, 7, 4, 1, 4, 1, 0.7, 0.3, left, 1, 0.3, 0.4, 0.6, 0.7, 1.387517899973318, 0, 74.14346313476562, 1.750033100019209, 3.000000, 73.000000, 3.000000,3.000000,1.000000,6.000000,0.500000,1.000000
3, test, 6, no_probe, 8, 2, 4, 4, 2, 0.4, 0.7, right, 2, 0.3, 0.4, 0.6, 0.7, 0.4343683000188321, 1, , , 4.000000, 74.000000, 1.000000,3.000000,1.000000,6.000000,0.500000,1.000000
3, test, 6, no_probe, 9, 1, 3, 1, 3, 0.3, 0.6, left, 1, 0.3, 0.4, 0.6, 0.7, 0.6433435999788344, 1, , , 5.000000, 75.000000, 2.000000,3.000000,1.000000,6.000000,0.500000,1.000000
3, test, 6, probe, 10, 3, 4, 4, 3, 0.6, 0.7, right, 2, 0.3, 0.4, 0.6, 0.7, 0.667339300038293, 0, 54.39520263671875, 2.499966200091876, 5.000000, 75.000000, 3.000000,3.000000,1.000000,6.000000,0.500000,1.000000
3, test, 6, no_probe, 11, 3, 1, 3, 1, 0.6, 0.3, left, 1, 0.3, 0.4, 0.6, 0.7, 1.356271700002253, 1, , , 6.000000, 76.000000, 1.000000,3.000000,1.000000,6.000000,0.500000,1.000000
3, test, 6, no_probe, 12, 3, 4, 3, 4, 0.6, 0.7, left, 1, 0.3, 0.4, 0.6, 0.7, 1.5080630999291316, 0, , , 6.000000, 76.000000, 2.000000,3.000000,1.000000,6.000000,0.500000,1.000000
3, test, 6, probe, 13, 4, 2, 2, 4, 0.7, 0.4, right, 2, 0.3, 0.4, 0.6, 0.7, 1.3055983999511227, 0, 61.512420654296875, 3.066629800014198, 6.000000, 76.000000, 3.000000,3.000000,1.000000,6.000000,0.500000,1.000000
3, test, 6, no_probe, 14, 1, 3, 1, 3, 0.3, 0.6, left, 1, 0.3, 0.4, 0.6, 0.7, 0.45755549997556955, 0, , , 6.000000, 76.000000, 1.000000,2.000000,1.000000,6.000000,0.500000,1.000000
3, test, 6, probe, 15, 2, 1, 2, 1, 0.4, 0.3, left, 1, 0.3, 0.4, 0.6, 0.7, 0.9458997999317944, 1, 59.501983642578125, 1.3832705999957398, 7.000000, 77.000000, 2.000000,2.000000,1.000000,6.000000,0.500000,1.000000
3, test, 6, no_probe, 16, 2, 1, 1, 2, 0.4, 0.3, right, 2, 0.3, 0.4, 0.6, 0.7, 0.8163542000111192, 0, , , 7.000000, 77.000000, 1.000000,3.000000,1.000000,6.000000,0.500000,1.000000
3, test, 6, no_probe, 17, 1, 2, 1, 2, 0.3, 0.4, left, 1, 0.3, 0.4, 0.6, 0.7, 1.7375493999570608, 1, , , 8.000000, 78.000000, 2.000000,3.000000,1.000000,6.000000,0.500000,1.000000
3, test, 6, probe, 18, 2, 4, 4, 2, 0.4, 0.7, right, 2, 0.3, 0.4, 0.6, 0.7, 0.721075400011614, 0, 61.938385009765625, 1.266615999978967, 8.000000, 78.000000, 3.000000,3.000000,1.000000,6.000000,0.500000,1.000000
3, test, 6, no_probe, 19, 4, 1, 1, 4, 0.7, 0.3, right, 2, 0.3, 0.4, 0.6, 0.7, 1.4370769000379369, 1, , , 9.000000, 79.000000, 1.000000,2.000000,1.000000,6.000000,0.500000,1.000000
3, test, 6, probe, 20, 4, 2, 4, 2, 0.7, 0.4, left, 1, 0.3, 0.4, 0.6, 0.7, 1.2979352000402287, 1, 75.0855712890625, 2.199968700064346, 10.000000, 80.000000, 2.000000,2.000000,1.000000,6.000000,0.500000,1.000000
3, test, 6, no_probe, 21, 4, 2, 2, 4, 0.7, 0.4, right, 2, 0.3, 0.4, 0.6, 0.7, 0.8537315999856219, 1, , , 11.000000, 81.000000, 1.000000,2.000000,1.000000,6.000000,0.500000,1.000000
3, test, 6, probe, 22, 4, 2, 2, 4, 0.7, 0.4, right, 2, 0.3, 0.4, 0.6, 0.7, 0.6449288999428973, 1, 80.94110107421875, 1.2833391000749543, 12.000000, 82.000000, 2.000000,2.000000,1.000000,6.000000,0.500000,1.000000
3, test, 6, no_probe, 23, 2, 4, 2, 4, 0.4, 0.7, left, 1, 0.3, 0.4, 0.6, 0.7, 0.9244684999575838, 0, , , 12.000000, 82.000000, 1.000000,3.000000,1.000000,6.000000,0.500000,1.000000
3, test, 6, no_probe, 24, 2, 1, 1, 2, 0.4, 0.3, right, 2, 0.3, 0.4, 0.6, 0.7, 0.6096252999268472, 1, , , 13.000000, 83.000000, 2.000000,3.000000,1.000000,6.000000,0.500000,1.000000
3, test, 6, probe, 25, 3, 1, 3, 1, 0.6, 0.3, left, 1, 0.3, 0.4, 0.6, 0.7, 0.7988850999390706, 1, 76.65347290039062, 2.233324799919501, 14.000000, 84.000000, 3.000000,3.000000,1.000000,6.000000,0.500000,1.000000
3, test, 7, no_probe, 1, 3, 4, 3, 4, 0.6, 0.7, left, 1, 0.3, 0.4, 0.6, 0.7, 0.8985347000416368, 1, , , 1.000000, 85.000000, 1.000000,3.000000,1.000000,6.000000,0.500000,1.000000
3, test, 7, no_probe, 2, 2, 1, 1, 2, 0.4, 0.3, right, 2, 0.3, 0.4, 0.6, 0.7, 0.5477452999912202, 0, , , 1.000000, 85.000000, 2.000000,3.000000,1.000000,6.000000,0.500000,1.000000
3, test, 7, probe, 3, 2, 3, 2, 3, 0.4, 0.6, left, 1, 0.3, 0.4, 0.6, 0.7, 0.1986451999982819, 0, 36.019500732421875, 1.7329401000170037, 1.000000, 85.000000, 3.000000,3.000000,1.000000,6.000000,0.500000,1.000000
3, test, 7, no_probe, 4, 2, 4, 2, 4, 0.4, 0.7, left, 1, 0.3, 0.4, 0.6, 0.7, 1.1738694000523537, 0, , , 1.000000, 85.000000, 1.000000,3.000000,1.000000,6.000000,0.500000,1.000000
3, test, 7, no_probe, 5, 2, 1, 1, 2, 0.4, 0.3, right, 2, 0.3, 0.4, 0.6, 0.7, 0.17898910003714263, 0, , , 1.000000, 85.000000, 2.000000,3.000000,1.000000,6.000000,0.500000,1.000000
3, test, 7, probe, 6, 4, 3, 3, 4, 0.7, 0.6, right, 2, 0.3, 0.4, 0.6, 0.7, 0.5425948000047356, 1, 21.146026611328125, 1.2499799000797793, 2.000000, 86.000000, 3.000000,3.000000,1.000000,6.000000,0.500000,1.000000
3, test, 7, no_probe, 7, 3, 2, 3, 2, 0.6, 0.4, left, 1, 0.3, 0.4, 0.6, 0.7, 0.5180688000982627, 0, , , 2.000000, 86.000000, 1.000000,2.000000,1.000000,6.000000,0.500000,1.000000
3, test, 7, probe, 8, 2, 3, 2, 3, 0.4, 0.6, left, 1, 0.3, 0.4, 0.6, 0.7, 0.2107620999449864, 0, 70.17373657226562, 2.5166512000141665, 2.000000, 86.000000, 2.000000,2.000000,1.000000,6.000000,0.500000,1.000000
3, test, 7, no_probe, 9, 3, 4, 4, 3, 0.6, 0.7, right, 2, 0.3, 0.4, 0.6, 0.7, 1.7474195000249892, 1, , , 3.000000, 87.000000, 1.000000,2.000000,1.000000,6.000000,0.500000,1.000000
3, test, 7, probe, 10, 1, 4, 1, 4, 0.3, 0.7, left, 1, 0.3, 0.4, 0.6, 0.7, 0.45763499999884516, 0, 23.669525146484375, 2.483241999987513, 3.000000, 87.000000, 2.000000,2.000000,1.000000,6.000000,0.500000,1.000000
3, test, 7, no_probe, 11, 1, 3, 3, 1, 0.3, 0.6, right, 2, 0.3, 0.4, 0.6, 0.7, 0.9601631000405177, 0, , , 3.000000, 87.000000, 1.000000,2.000000,1.000000,6.000000,0.500000,1.000000
3, test, 7, probe, 12, 4, 1, 4, 1, 0.7, 0.3, left, 1, 0.3, 0.4, 0.6, 0.7, 0.6712719000643119, 0, 85.841796875, 2.2666297999676317, 3.000000, 87.000000, 2.000000,2.000000,1.000000,6.000000,0.500000,1.000000
3, test, 7, no_probe, 13, 1, 4, 4, 1, 0.3, 0.7, right, 2, 0.3, 0.4, 0.6, 0.7, 3.633632200071588, 0, , , 3.000000, 87.000000, 1.000000,2.000000,1.000000,6.000000,0.500000,1.000000
3, test, 7, probe, 14, 2, 1, 2, 1, 0.4, 0.3, left, 1, 0.3, 0.4, 0.6, 0.7, 1.6658056000014767, 0, 83.03219604492188, 4.599943800014444, 3.000000, 87.000000, 2.000000,2.000000,1.000000,6.000000,0.500000,1.000000
3, test, 7, no_probe, 15, 2, 3, 3, 2, 0.4, 0.6, right, 2, 0.3, 0.4, 0.6, 0.7, 1.4883353000041097, 0, , , 3.000000, 87.000000, 1.000000,3.000000,1.000000,6.000000,0.500000,1.000000
3, test, 7, no_probe, 16, 1, 2, 2, 1, 0.3, 0.4, right, 2, 0.3, 0.4, 0.6, 0.7, 0.8664067999925464, 1, , , 4.000000, 88.000000, 2.000000,3.000000,1.000000,6.000000,0.500000,1.000000
3, test, 7, probe, 17, 1, 3, 3, 1, 0.3, 0.6, right, 2, 0.3, 0.4, 0.6, 0.7, 0.6760199998971075, 0, 94.36373901367188, 1.5333221000619233, 4.000000, 88.000000, 3.000000,3.000000,1.000000,6.000000,0.500000,1.000000
3, test, 7, no_probe, 18, 2, 3, 3, 2, 0.4, 0.6, right, 2, 0.3, 0.4, 0.6, 0.7, 0.9841948000248522, 0, , , 4.000000, 88.000000, 1.000000,2.000000,1.000000,6.000000,0.500000,1.000000
3, test, 7, probe, 19, 1, 4, 1, 4, 0.3, 0.7, left, 1, 0.3, 0.4, 0.6, 0.7, 0.2620140000944957, 0, 25.5301513671875, 3.716629400034435, 4.000000, 88.000000, 2.000000,2.000000,1.000000,6.000000,0.500000,1.000000
3, test, 7, no_probe, 20, 2, 3, 3, 2, 0.4, 0.6, right, 2, 0.3, 0.4, 0.6, 0.7, 0.2907064000610262, 0, , , 4.000000, 88.000000, 1.000000,2.000000,1.000000,6.000000,0.500000,1.000000
3, test, 7, probe, 21, 3, 4, 3, 4, 0.6, 0.7, left, 1, 0.3, 0.4, 0.6, 0.7, 1.2933875999879092, 0, 35.715606689453125, 2.5333192999241874, 4.000000, 88.000000, 2.000000,2.000000,1.000000,6.000000,0.500000,1.000000
3, test, 7, no_probe, 22, 1, 3, 3, 1, 0.3, 0.6, right, 2, 0.3, 0.4, 0.6, 0.7, 1.1643757000565529, 0, , , 4.000000, 88.000000, 1.000000,3.000000,1.000000,6.000000,0.500000,1.000000
3, test, 7, no_probe, 23, 4, 3, 4, 3, 0.7, 0.6, left, 1, 0.3, 0.4, 0.6, 0.7, 0.9070451000006869, 1, , , 5.000000, 89.000000, 2.000000,3.000000,1.000000,6.000000,0.500000,1.000000
3, test, 7, probe, 24, 4, 1, 1, 4, 0.7, 0.3, right, 2, 0.3, 0.4, 0.6, 0.7, 0.7606169000500813, 1, 49.9984130859375, 0.866677499958314, 6.000000, 90.000000, 3.000000,3.000000,1.000000,6.000000,0.500000,1.000000
3, test, 7, no_probe, 25, 4, 1, 4, 1, 0.7, 0.3, left, 1, 0.3, 0.4, 0.6, 0.7, 0.8321014000102878, 1, , , 7.000000, 91.000000, 1.000000,3.000000,1.000000,6.000000,0.500000,1.000000
3, test, 8, no_probe, 1, 2, 3, 2, 3, 0.4, 0.6, left, 1, 0.3, 0.4, 0.6, 0.7, 0.6123791000572965, 1, , , 1.000000, 92.000000, 1.000000,3.000000,1.000000,6.000000,0.500000,1.000000
3, test, 8, no_probe, 2, 2, 1, 1, 2, 0.4, 0.3, right, 2, 0.3, 0.4, 0.6, 0.7, 0.992127800011076, 0, , , 1.000000, 92.000000, 2.000000,3.000000,1.000000,6.000000,0.500000,1.000000
3, test, 8, probe, 3, 4, 2, 2, 4, 0.7, 0.4, right, 2, 0.3, 0.4, 0.6, 0.7, 0.7237494000000879, 1, 99.99856567382812, 2.4995810999535024, 2.000000, 93.000000, 3.000000,3.000000,1.000000,6.000000,0.500000,1.000000
3, test, 8, no_probe, 4, 1, 4, 4, 1, 0.3, 0.7, right, 2, 0.3, 0.4, 0.6, 0.7, 0.958673799992539, 0, , , 2.000000, 93.000000, 1.000000,3.000000,1.000000,6.000000,0.500000,1.000000
3, test, 8, no_probe, 5, 4, 2, 2, 4, 0.7, 0.4, right, 2, 0.3, 0.4, 0.6, 0.7, 1.3134123999625444, 1, , , 3.000000, 94.000000, 2.000000,3.000000,1.000000,6.000000,0.500000,1.000000
3, test, 8, probe, 6, 4, 3, 4, 3, 0.7, 0.6, left, 1, 0.3, 0.4, 0.6, 0.7, 0.45911220007110387, 1, 99.999267578125, 2.1166098000248894, 4.000000, 95.000000, 3.000000,3.000000,1.000000,6.000000,0.500000,1.000000
3, test, 8, no_probe, 7, 1, 3, 1, 3, 0.3, 0.6, left, 1, 0.3, 0.4, 0.6, 0.7, 1.0565256000263616, 0, , , 4.000000, 95.000000, 1.000000,3.000000,1.000000,6.000000,0.500000,1.000000
3, test, 8, no_probe, 8, 3, 4, 4, 3, 0.6, 0.7, right, 2, 0.3, 0.4, 0.6, 0.7, 1.7638816001126543, 0, , , 4.000000, 95.000000, 2.000000,3.000000,1.000000,6.000000,0.500000,1.000000
3, test, 8, probe, 9, 2, 3, 2, 3, 0.4, 0.6, left, 1, 0.3, 0.4, 0.6, 0.7, 0.7093541999347508, 1, 95.6177978515625, 1.933310699998401, 5.000000, 96.000000, 3.000000,3.000000,1.000000,6.000000,0.500000,1.000000
3, test, 8, no_probe, 10, 1, 3, 1, 3, 0.3, 0.6, left, 1, 0.3, 0.4, 0.6, 0.7, 0.8090015000198036, 0, , , 5.000000, 96.000000, 1.000000,3.000000,1.000000,6.000000,0.500000,1.000000
3, test, 8, no_probe, 11, 2, 1, 2, 1, 0.4, 0.3, left, 1, 0.3, 0.4, 0.6, 0.7, 1.9867563999723643, 1, , , 6.000000, 97.000000, 2.000000,3.000000,1.000000,6.000000,0.500000,1.000000
3, test, 8, probe, 12, 4, 1, 4, 1, 0.7, 0.3, left, 1, 0.3, 0.4, 0.6, 0.7, 0.511759200016968, 1, 99.99990844726562, 1.7166453000390902, 7.000000, 98.000000, 3.000000,3.000000,1.000000,6.000000,0.500000,1.000000
3, test, 8, no_probe, 13, 2, 3, 3, 2, 0.4, 0.6, right, 2, 0.3, 0.4, 0.6, 0.7, 0.986655900022015, 0, , , 7.000000, 98.000000, 1.000000,2.000000,1.000000,6.000000,0.500000,1.000000
3, test, 8, probe, 14, 4, 1, 4, 1, 0.7, 0.3, left, 1, 0.3, 0.4, 0.6, 0.7, 0.5247537000104785, 0, 99.99957275390625, 2.1166237998986617, 7.000000, 98.000000, 2.000000,2.000000,1.000000,6.000000,0.500000,1.000000
3, test, 8, no_probe, 15, 4, 1, 4, 1, 0.7, 0.3, left, 1, 0.3, 0.4, 0.6, 0.7, 0.5634293999755755, 0, , , 7.000000, 98.000000, 1.000000,2.000000,1.000000,6.000000,0.500000,1.000000
3, test, 8, probe, 16, 4, 1, 4, 1, 0.7, 0.3, left, 1, 0.3, 0.4, 0.6, 0.7, 0.6148154999827966, 1, 99.99945068359375, 1.5332658999832347, 8.000000, 99.000000, 2.000000,2.000000,1.000000,6.000000,0.500000,1.000000
3, test, 8, no_probe, 17, 3, 2, 2, 3, 0.6, 0.4, right, 2, 0.3, 0.4, 0.6, 0.7, 0.6038230999838561, 0, , , 8.000000, 99.000000, 1.000000,2.000000,1.000000,6.000000,0.500000,1.000000
3, test, 8, probe, 18, 2, 3, 3, 2, 0.4, 0.6, right, 2, 0.3, 0.4, 0.6, 0.7, 0.533293200074695, 0, 98.00930786132812, 1.6666192999109626, 8.000000, 99.000000, 2.000000,2.000000,1.000000,6.000000,0.500000,1.000000
3, test, 8, no_probe, 19, 4, 1, 4, 1, 0.7, 0.3, left, 1, 0.3, 0.4, 0.6, 0.7, 0.3130210000090301, 1, , , 9.000000, 100.000000, 1.000000,3.000000,1.000000,6.000000,0.500000,1.000000
3, test, 8, no_probe, 20, 4, 2, 4, 2, 0.7, 0.4, left, 1, 0.3, 0.4, 0.6, 0.7, 0.2977035000221804, 0, , , 9.000000, 100.000000, 2.000000,3.000000,1.000000,6.000000,0.500000,1.000000
3, test, 8, probe, 21, 3, 2, 2, 3, 0.6, 0.4, right, 2, 0.3, 0.4, 0.6, 0.7, 1.2604073999682441, 1, 86.34478759765625, 1.5499952000100166, 10.000000, 101.000000, 3.000000,3.000000,1.000000,6.000000,0.500000,1.000000
3, test, 8, no_probe, 22, 4, 2, 2, 4, 0.7, 0.4, right, 2, 0.3, 0.4, 0.6, 0.7, 1.1904408999253064, 1, , , 11.000000, 102.000000, 1.000000,3.000000,1.000000,6.000000,0.500000,1.000000
3, test, 8, no_probe, 23, 2, 3, 3, 2, 0.4, 0.6, right, 2, 0.3, 0.4, 0.6, 0.7, 1.2581435999600217, 0, , , 11.000000, 102.000000, 2.000000,3.000000,1.000000,6.000000,0.500000,1.000000
3, test, 8, probe, 24, 3, 1, 3, 1, 0.6, 0.3, left, 1, 0.3, 0.4, 0.6, 0.7, 0.815812399960123, 1, 97.39352416992188, 2.983264699927531, 12.000000, 103.000000, 3.000000,3.000000,1.000000,6.000000,0.500000,1.000000
3, test, 8, no_probe, 25, 3, 1, 3, 1, 0.6, 0.3, left, 1, 0.3, 0.4, 0.6, 0.7, 1.2808673999970779, 0, , , 12.000000, 103.000000, 1.000000,2.000000,1.000000,6.000000,0.500000,1.000000
