subject, block_type, block, thought probe, trial, chosen, unchosen, offer_left_image, offer_right_image, exp_value_chosen, exp_value_unchosen, choice_location, choice_key, exp_value1, exp_value2, exp_value3, exp_value4, RT, reward, vas, RT_vas, coins_per_block, coins_per_task, count_to_prob, ntrial_to_prob, ITI_duration,RT_deadline,choice_feedback_duration,outcome_duration
66, test, 1, abort_trial, 1
66, test, 1, no_probe, 2, 1, 4, 4, 1, 0.3, 0.7, right, 2, 0.3, 0.4, 0.6, 0.7, 0.5591984000000139, 1, , , 1.000000, 1.000000, 1.000000,2.000000,1.000000,6.000000,0.500000,1.000000
66, test, 1, probe, 3, 1, 4, 1, 4, 0.3, 0.7, left, 1, 0.3, 0.4, 0.6, 0.7, 1.1818878000000268, 0, 99.9984130859375, 3.066640399999983, 1.000000, 1.000000, 2.000000,2.000000,1.000000,6.000000,0.500000,1.000000
66, test, 1, no_probe, 4, 2, 1, 2, 1, 0.4, 0.3, left, 1, 0.3, 0.4, 0.6, 0.7, 0.9717132000000106, 0, , , 1.000000, 1.000000, 1.000000,2.000000,1.000000,6.000000,0.500000,1.000000
66, test, 1, probe, 5, 4, 2, 4, 2, 0.7, 0.4, left, 1, 0.3, 0.4, 0.6, 0.7, 1.5031460000000152, 1, 99.99954223632812, 1.8332827000000407, 2.000000, 2.000000, 2.000000,2.000000,1.000000,6.000000,0.500000,1.000000
66, test, 1, no_probe, 6, 4, 1, 4, 1, 0.7, 0.3, left, 1, 0.3, 0.4, 0.6, 0.7, 1.117900899999995, 0, , , 2.000000, 2.000000, 1.000000,3.000000,1.000000,6.000000,0.500000,1.000000
66, test, 1, no_probe, 1, 3, 4, 4, 3, 0.6, 0.7, right, 2, 0.3, 0.4, 0.6, 0.7, 0.6293783999999505, 0, , , 0.000000, 2.000000, 1.000000,3.000000,1.000000,6.000000,0.500000,1.000000
66, test, 1, no_probe, 2, 3, 4, 3, 4, 0.6, 0.7, left, 1, 0.3, 0.4, 0.6, 0.7, 1.4535619999999199, 1, , , 1.000000, 3.000000, 2.000000,3.000000,1.000000,6.000000,0.500000,1.000000
66, test, 1, probe, 3, 4, 1, 1, 4, 0.7, 0.3, right, 2, 0.3, 0.4, 0.6, 0.7, 1.1199048999999377, 0, 74.7071533203125, 2.216373800000042, 1.000000, 3.000000, 3.000000,3.000000,1.000000,6.000000,0.500000,1.000000
66, test, 1, no_probe, 4, 2, 4, 4, 2, 0.4, 0.7, right, 2, 0.3, 0.4, 0.6, 0.7, 0.7265214999999898, 0, , , 1.000000, 3.000000, 1.000000,2.000000,1.000000,6.000000,0.500000,1.000000
66, test, 1, probe, 5, 2, 3, 3, 2, 0.4, 0.6, right, 2, 0.3, 0.4, 0.6, 0.7, 1.1711539000000357, 1, 81.23971557617188, 1.7499904999999671, 2.000000, 4.000000, 2.000000,2.000000,1.000000,6.000000,0.500000,1.000000
66, test, 1, no_probe, 6, 1, 4, 4, 1, 0.3, 0.7, right, 2, 0.3, 0.4, 0.6, 0.7, 1.7351366999999982, 1, , , 3.000000, 5.000000, 1.000000,2.000000,1.000000,6.000000,0.500000,1.000000
66, test, 1, probe, 7, 4, 2, 2, 4, 0.7, 0.4, right, 2, 0.3, 0.4, 0.6, 0.7, 1.0543775999999525, 1, 80.45916748046875, 1.5666534000000638, 4.000000, 6.000000, 2.000000,2.000000,1.000000,6.000000,0.500000,1.000000
66, test, 1, no_probe, 8, 1, 4, 4, 1, 0.3, 0.7, right, 2, 0.3, 0.4, 0.6, 0.7, 1.97397890000002, 1, , , 5.000000, 7.000000, 1.000000,2.000000,1.000000,6.000000,0.500000,1.000000
66, test, 1, probe, 9, 2, 1, 2, 1, 0.4, 0.3, left, 1, 0.3, 0.4, 0.6, 0.7, 0.6694896999999855, 0, 31.32843017578125, 1.6666872000000694, 5.000000, 7.000000, 2.000000,2.000000,1.000000,6.000000,0.500000,1.000000
66, test, 1, no_probe, 10, 1, 2, 1, 2, 0.3, 0.4, left, 1, 0.3, 0.4, 0.6, 0.7, 1.0631903999999395, 1, , , 6.000000, 8.000000, 1.000000,3.000000,1.000000,6.000000,0.500000,1.000000
66, test, 1, no_probe, 11, 2, 4, 4, 2, 0.4, 0.7, right, 2, 0.3, 0.4, 0.6, 0.7, 1.070855800000004, 0, , , 6.000000, 8.000000, 2.000000,3.000000,1.000000,6.000000,0.500000,1.000000
66, test, 1, probe, 12, 2, 3, 2, 3, 0.4, 0.6, left, 1, 0.3, 0.4, 0.6, 0.7, 0.8440197000001035, 1, 88.84283447265625, 1.999982599999953, 7.000000, 9.000000, 3.000000,3.000000,1.000000,6.000000,0.500000,1.000000
66, test, 1, no_probe, 13, 4, 2, 2, 4, 0.7, 0.4, right, 2, 0.3, 0.4, 0.6, 0.7, 1.2358838000000105, 1, , , 8.000000, 10.000000, 1.000000,2.000000,1.000000,6.000000,0.500000,1.000000
66, test, 1, probe, 14, 2, 3, 2, 3, 0.4, 0.6, left, 1, 0.3, 0.4, 0.6, 0.7, 1.287166500000012, 1, 87.42630004882812, 2.3666703000000098, 9.000000, 11.000000, 2.000000,2.000000,1.000000,6.000000,0.500000,1.000000
66, test, 1, no_probe, 15, 1, 3, 1, 3, 0.3, 0.6, left, 1, 0.3, 0.4, 0.6, 0.7, 1.2176445999999714, 0, , , 9.000000, 11.000000, 1.000000,2.000000,1.000000,6.000000,0.500000,1.000000
66, test, 1, probe, 16, 2, 1, 1, 2, 0.4, 0.3, right, 2, 0.3, 0.4, 0.6, 0.7, 0.5612949999999728, 0, 8.987091064453125, 1.3333227000000534, 9.000000, 11.000000, 2.000000,2.000000,1.000000,6.000000,0.500000,1.000000
66, test, 1, no_probe, 17, 2, 3, 3, 2, 0.4, 0.6, right, 2, 0.3, 0.4, 0.6, 0.7, 1.4112094999999272, 1, , , 10.000000, 12.000000, 1.000000,3.000000,1.000000,6.000000,0.500000,1.000000
66, test, 1, no_probe, 18, 4, 1, 1, 4, 0.7, 0.3, right, 2, 0.3, 0.4, 0.6, 0.7, 1.3714603999999326, 0, , , 10.000000, 12.000000, 2.000000,3.000000,1.000000,6.000000,0.500000,1.000000
66, test, 1, probe, 19, 3, 2, 3, 2, 0.6, 0.4, left, 1, 0.3, 0.4, 0.6, 0.7, 0.8675097000000278, 0, 17.986419677734375, 1.616613799999982, 10.000000, 12.000000, 3.000000,3.000000,1.000000,6.000000,0.500000,1.000000
66, test, 1, no_probe, 20, 2, 1, 2, 1, 0.4, 0.3, left, 1, 0.3, 0.4, 0.6, 0.7, 0.684206099999983, 0, , , 10.000000, 12.000000, 1.000000,3.000000,1.000000,6.000000,0.500000,1.000000
66, test, 1, no_probe, 21, 3, 1, 1, 3, 0.6, 0.3, right, 2, 0.3, 0.4, 0.6, 0.7, 1.2212310999999545, 1, , , 11.000000, 13.000000, 2.000000,3.000000,1.000000,6.000000,0.500000,1.000000
66, test, 1, probe, 22, 4, 1, 4, 1, 0.7, 0.3, left, 1, 0.3, 0.4, 0.6, 0.7, 1.3385747999999467, 0, 57.745880126953125, 1.7833137000000079, 11.000000, 13.000000, 3.000000,3.000000,1.000000,6.000000,0.500000,1.000000
66, test, 1, no_probe, 23, 3, 1, 1, 3, 0.6, 0.3, right, 2, 0.3, 0.4, 0.6, 0.7, 1.2061904999999342, 0, , , 11.000000, 13.000000, 1.000000,2.000000,1.000000,6.000000,0.500000,1.000000
66, test, 1, probe, 24, 1, 3, 1, 3, 0.3, 0.6, left, 1, 0.3, 0.4, 0.6, 0.7, 1.7949753000000328, 0, 30.029296875, 1.2666206000000102, 11.000000, 13.000000, 2.000000,2.000000,1.000000,6.000000,0.500000,1.000000
66, test, 1, no_probe, 25, 1, 3, 3, 1, 0.3, 0.6, right, 2, 0.3, 0.4, 0.6, 0.7, 0.5245316000000457, 0, , , 11.000000, 13.000000, 1.000000,2.000000,1.000000,6.000000,0.500000,1.000000
66, test, 2, no_probe, 1, 1, 2, 2, 1, 0.3, 0.4, right, 2, 0.3, 0.4, 0.6, 0.7, 0.6678805000000239, 0, , , 0.000000, 13.000000, 1.000000,3.000000,1.000000,6.000000,0.500000,1.000000
66, test, 2, no_probe, 2, 2, 4, 4, 2, 0.4, 0.7, right, 2, 0.3, 0.4, 0.6, 0.7, 1.5592202999999927, 1, , , 1.000000, 14.000000, 2.000000,3.000000,1.000000,6.000000,0.500000,1.000000
66, test, 2, probe, 3, 3, 4, 4, 3, 0.6, 0.7, right, 2, 0.3, 0.4, 0.6, 0.7, 1.4656376000000364, 0, 64.16070556640625, 1.4330002000000377, 1.000000, 14.000000, 3.000000,3.000000,1.000000,6.000000,0.500000,1.000000
66, test, 2, no_probe, 4, 3, 4, 4, 3, 0.6, 0.7, right, 2, 0.3, 0.4, 0.6, 0.7, 1.9781934000000092, 1, , , 2.000000, 15.000000, 1.000000,2.000000,1.000000,6.000000,0.500000,1.000000
66, test, 2, probe, 5, 4, 1, 1, 4, 0.7, 0.3, right, 2, 0.3, 0.4, 0.6, 0.7, 1.1755203999999821, 1, 87.87054443359375, 2.0500091999999768, 3.000000, 16.000000, 2.000000,2.000000,1.000000,6.000000,0.500000,1.000000
66, test, 2, no_probe, 6, 1, 2, 1, 2, 0.3, 0.4, left, 1, 0.3, 0.4, 0.6, 0.7, 2.4153896999999915, 0, , , 3.000000, 16.000000, 1.000000,3.000000,1.000000,6.000000,0.500000,1.000000
66, test, 2, no_probe, 7, 4, 1, 1, 4, 0.7, 0.3, right, 2, 0.3, 0.4, 0.6, 0.7, 0.8366419999999835, 1, , , 4.000000, 17.000000, 2.000000,3.000000,1.000000,6.000000,0.500000,1.000000
66, test, 2, probe, 8, 4, 3, 3, 4, 0.7, 0.6, right, 2, 0.3, 0.4, 0.6, 0.7, 1.0717971999999918, 1, 90.9453125, 1.9166627999999264, 5.000000, 18.000000, 3.000000,3.000000,1.000000,6.000000,0.500000,1.000000
66, test, 2, no_probe, 9, 4, 1, 4, 1, 0.7, 0.3, left, 1, 0.3, 0.4, 0.6, 0.7, 1.2440450000000283, 1, , , 6.000000, 19.000000, 1.000000,3.000000,1.000000,6.000000,0.500000,1.000000
66, test, 2, no_probe, 10, 2, 3, 3, 2, 0.4, 0.6, right, 2, 0.3, 0.4, 0.6, 0.7, 0.6896769999999606, 0, , , 6.000000, 19.000000, 2.000000,3.000000,1.000000,6.000000,0.500000,1.000000
66, test, 2, probe, 11, 2, 1, 2, 1, 0.4, 0.3, left, 1, 0.3, 0.4, 0.6, 0.7, 0.7557547000000113, 1, 84.09649658203125, 1.333409799999913, 7.000000, 20.000000, 3.000000,3.000000,1.000000,6.000000,0.500000,1.000000
66, test, 2, no_probe, 12, 2, 3, 3, 2, 0.4, 0.6, right, 2, 0.3, 0.4, 0.6, 0.7, 0.8633876999999757, 0, , , 7.000000, 20.000000, 1.000000,3.000000,1.000000,6.000000,0.500000,1.000000
66, test, 2, no_probe, 13, 2, 1, 1, 2, 0.4, 0.3, right, 2, 0.3, 0.4, 0.6, 0.7, 0.5703635999999506, 0, , , 7.000000, 20.000000, 2.000000,3.000000,1.000000,6.000000,0.500000,1.000000
66, test, 2, probe, 14, 2, 3, 2, 3, 0.4, 0.6, left, 1, 0.3, 0.4, 0.6, 0.7, 0.7240676999999778, 1, 79.7828369140625, 1.366673999999989, 8.000000, 21.000000, 3.000000,3.000000,1.000000,6.000000,0.500000,1.000000
66, test, 2, no_probe, 15, 1, 2, 1, 2, 0.3, 0.4, left, 1, 0.3, 0.4, 0.6, 0.7, 1.4964071000000558, 0, , , 8.000000, 21.000000, 1.000000,2.000000,1.000000,6.000000,0.500000,1.000000
66, test, 2, probe, 16, 4, 3, 4, 3, 0.7, 0.6, left, 1, 0.3, 0.4, 0.6, 0.7, 1.1997555000000375, 1, 65.51361083984375, 1.3666544999999815, 9.000000, 22.000000, 2.000000,2.000000,1.000000,6.000000,0.500000,1.000000
66, test, 2, no_probe, 17, 4, 2, 2, 4, 0.7, 0.4, right, 2, 0.3, 0.4, 0.6, 0.7, 1.1287819000000354, 0, , , 9.000000, 22.000000, 1.000000,3.000000,1.000000,6.000000,0.500000,1.000000
66, test, 2, no_probe, 18, 4, 2, 2, 4, 0.7, 0.4, right, 2, 0.3, 0.4, 0.6, 0.7, 2.3638434000000643, 0, , , 9.000000, 22.000000, 2.000000,3.000000,1.000000,6.000000,0.500000,1.000000
66, test, 2, probe, 19, 4, 1, 1, 4, 0.7, 0.3, right, 2, 0.3, 0.4, 0.6, 0.7, 1.182718100000102, 1, 18.80450439453125, 2.2166783000000123, 10.000000, 23.000000, 3.000000,3.000000,1.000000,6.000000,0.500000,1.000000
66, test, 2, no_probe, 20, 1, 3, 1, 3, 0.3, 0.6, left, 1, 0.3, 0.4, 0.6, 0.7, 2.6394032999999126, 0, , , 10.000000, 23.000000, 1.000000,2.000000,1.000000,6.000000,0.500000,1.000000
66, test, 2, probe, 21, 4, 2, 2, 4, 0.7, 0.4, right, 2, 0.3, 0.4, 0.6, 0.7, 1.2482916999999816, 1, 60.527313232421875, 1.1000122000000374, 11.000000, 24.000000, 2.000000,2.000000,1.000000,6.000000,0.500000,1.000000
66, test, 2, no_probe, 22, 3, 4, 4, 3, 0.6, 0.7, right, 2, 0.3, 0.4, 0.6, 0.7, 3.122018599999933, 0, , , 11.000000, 24.000000, 1.000000,2.000000,1.000000,6.000000,0.500000,1.000000
66, test, 2, probe, 23, 2, 3, 2, 3, 0.4, 0.6, left, 1, 0.3, 0.4, 0.6, 0.7, 2.906647899999939, 1, 77.16036987304688, 1.4833560999999236, 12.000000, 25.000000, 2.000000,2.000000,1.000000,6.000000,0.500000,1.000000
66, test, 2, no_probe, 24, 2, 3, 2, 3, 0.4, 0.6, left, 1, 0.3, 0.4, 0.6, 0.7, 2.0550227000001087, 0, , , 12.000000, 25.000000, 1.000000,3.000000,1.000000,6.000000,0.500000,1.000000
66, test, 2, no_probe, 25, 4, 3, 4, 3, 0.7, 0.6, left, 1, 0.3, 0.4, 0.6, 0.7, 0.7574090000000524, 1, , , 13.000000, 26.000000, 2.000000,3.000000,1.000000,6.000000,0.500000,1.000000
66, test, 3, no_probe, 1, 4, 2, 2, 4, 0.7, 0.4, right, 2, 0.3, 0.4, 0.6, 0.7, 0.768431899999996, 1, , , 1.000000, 27.000000, 1.000000,3.000000,1.000000,6.000000,0.500000,1.000000
66, test, 3, no_probe, 2, 2, 1, 2, 1, 0.4, 0.3, left, 1, 0.3, 0.4, 0.6, 0.7, 0.95171270000003, 0, , , 1.000000, 27.000000, 2.000000,3.000000,1.000000,6.000000,0.500000,1.000000
66, test, 3, probe, 3, 1, 3, 3, 1, 0.3, 0.6, right, 2, 0.3, 0.4, 0.6, 0.7, 1.3554173999999648, 1, 67.50222778320312, 1.316324399999985, 2.000000, 28.000000, 3.000000,3.000000,1.000000,6.000000,0.500000,1.000000
66, test, 3, no_probe, 4, 2, 4, 2, 4, 0.4, 0.7, left, 1, 0.3, 0.4, 0.6, 0.7, 2.319898099999932, 1, , , 3.000000, 29.000000, 1.000000,3.000000,1.000000,6.000000,0.500000,1.000000
66, test, 3, no_probe, 5, 2, 3, 3, 2, 0.4, 0.6, right, 2, 0.3, 0.4, 0.6, 0.7, 2.9646000000000186, 0, , , 3.000000, 29.000000, 2.000000,3.000000,1.000000,6.000000,0.500000,1.000000
66, test, 3, probe, 6, 3, 1, 3, 1, 0.6, 0.3, left, 1, 0.3, 0.4, 0.6, 0.7, 1.0583129000000326, 1, 62.193115234375, 1.0999865999999656, 4.000000, 30.000000, 3.000000,3.000000,1.000000,6.000000,0.500000,1.000000
66, test, 3, no_probe, 7, 1, 4, 4, 1, 0.3, 0.7, right, 2, 0.3, 0.4, 0.6, 0.7, 1.909811999999988, 0, , , 4.000000, 30.000000, 1.000000,2.000000,1.000000,6.000000,0.500000,1.000000
66, test, 3, probe, 8, 2, 4, 2, 4, 0.4, 0.7, left, 1, 0.3, 0.4, 0.6, 0.7, 1.1070002999999815, 1, 67.66253662109375, 1.1000093000000106, 5.000000, 31.000000, 2.000000,2.000000,1.000000,6.000000,0.500000,1.000000
66, test, 3, no_probe, 9, 1, 2, 2, 1, 0.3, 0.4, right, 2, 0.3, 0.4, 0.6, 0.7, 0.5072258999999804, 1, , , 6.000000, 32.000000, 1.000000,3.000000,1.000000,6.000000,0.500000,1.000000
66, test, 3, no_probe, 10, 3, 4, 3, 4, 0.6, 0.7, left, 1, 0.3, 0.4, 0.6, 0.7, 2.483932600000003, 1, , , 7.000000, 33.000000, 2.000000,3.000000,1.000000,6.000000,0.500000,1.000000
66, test, 3, probe, 11, 2, 4, 2, 4, 0.4, 0.7, left, 1, 0.3, 0.4, 0.6, 0.7, 1.6810837000000447, 0, 63.049957275390625, 1.1833576999999877, 7.000000, 33.000000, 3.000000,3.000000,1.000000,6.000000,0.500000,1.000000
66, test, 3, no_probe, 12, 3, 2, 3, 2, 0.6, 0.4, left, 1, 0.3, 0.4, 0.6, 0.7, 3.2635357999999997, 0, , , 7.000000, 33.000000, 1.000000,3.000000,1.000000,6.000000,0.500000,1.000000
66, test, 3, no_probe, 13, 1, 4, 4, 1, 0.3, 0.7, right, 2, 0.3, 0.4, 0.6, 0.7, 1.0546699999999873, 0, , , 7.000000, 33.000000, 2.000000,3.000000,1.000000,6.000000,0.500000,1.000000
66, test, 3, probe, 14, 4, 2, 4, 2, 0.7, 0.4, left, 1, 0.3, 0.4, 0.6, 0.7, 3.1689570999999432, 0, 20.7965087890625, 1.766664799999944, 7.000000, 33.000000, 3.000000,3.000000,1.000000,6.000000,0.500000,1.000000
66, test, 3, no_probe, 15, 1, 2, 2, 1, 0.3, 0.4, right, 2, 0.3, 0.4, 0.6, 0.7, 2.847967699999913, 1, , , 8.000000, 34.000000, 1.000000,3.000000,1.000000,6.000000,0.500000,1.000000
66, test, 3, no_probe, 16, 2, 1, 2, 1, 0.4, 0.3, left, 1, 0.3, 0.4, 0.6, 0.7, 2.131891900000028, 1, , , 9.000000, 35.000000, 2.000000,3.000000,1.000000,6.000000,0.500000,1.000000
66, test, 3, probe, 17, 3, 2, 2, 3, 0.6, 0.4, right, 2, 0.3, 0.4, 0.6, 0.7, 1.2190656999999874, 1, 79.21951293945312, 1.4666449000000057, 10.000000, 36.000000, 3.000000,3.000000,1.000000,6.000000,0.500000,1.000000
66, test, 3, no_probe, 18, 4, 3, 4, 3, 0.7, 0.6, left, 1, 0.3, 0.4, 0.6, 0.7, 1.0388966000000437, 1, , , 11.000000, 37.000000, 1.000000,3.000000,1.000000,6.000000,0.500000,1.000000
66, test, 3, no_probe, 19, 3, 2, 3, 2, 0.6, 0.4, left, 1, 0.3, 0.4, 0.6, 0.7, 1.5431476999999632, 1, , , 12.000000, 38.000000, 2.000000,3.000000,1.000000,6.000000,0.500000,1.000000
66, test, 3, probe, 20, 1, 3, 3, 1, 0.3, 0.6, right, 2, 0.3, 0.4, 0.6, 0.7, 1.0833439000000453, 1, 81.46658325195312, 1.6666768999999704, 13.000000, 39.000000, 3.000000,3.000000,1.000000,6.000000,0.500000,1.000000
66, test, 3, no_probe, 21, 1, 3, 3, 1, 0.3, 0.6, right, 2, 0.3, 0.4, 0.6, 0.7, 2.502594599999952, 0, , , 13.000000, 39.000000, 1.000000,2.000000,1.000000,6.000000,0.500000,1.000000
66, test, 3, probe, 22, 1, 2, 2, 1, 0.3, 0.4, right, 2, 0.3, 0.4, 0.6, 0.7, 2.4717577999999776, 0, 28.34906005859375, 1.3666582000000744, 13.000000, 39.000000, 2.000000,2.000000,1.000000,6.000000,0.500000,1.000000
66, test, 3, no_probe, 23, 3, 1, 3, 1, 0.6, 0.3, left, 1, 0.3, 0.4, 0.6, 0.7, 1.0179554000000053, 1, , , 14.000000, 40.000000, 1.000000,3.000000,1.000000,6.000000,0.500000,1.000000
66, test, 3, no_probe, 24, 4, 3, 4, 3, 0.7, 0.6, left, 1, 0.3, 0.4, 0.6, 0.7, 0.9019909000001007, 0, , , 14.000000, 40.000000, 2.000000,3.000000,1.000000,6.000000,0.500000,1.000000
66, test, 3, probe, 25, 4, 3, 3, 4, 0.7, 0.6, right, 2, 0.3, 0.4, 0.6, 0.7, 1.1923944999999776, 1, 65.87335205078125, 1.1832899999999427, 15.000000, 41.000000, 3.000000,3.000000,1.000000,6.000000,0.500000,1.000000
66, test, 4, no_probe, 1, 1, 3, 3, 1, 0.3, 0.6, right, 2, 0.3, 0.4, 0.6, 0.7, 0.6320524999999861, 0, , , 0.000000, 41.000000, 1.000000,3.000000,1.000000,6.000000,0.500000,1.000000
66, test, 4, no_probe, 2, 1, 4, 4, 1, 0.3, 0.7, right, 2, 0.3, 0.4, 0.6, 0.7, 0.807637399999976, 0, , , 0.000000, 41.000000, 2.000000,3.000000,1.000000,6.000000,0.500000,1.000000
66, test, 4, probe, 3, 4, 1, 4, 1, 0.7, 0.3, left, 1, 0.3, 0.4, 0.6, 0.7, 1.1973475000000917, 0, 33.12646484375, 1.2663243000000648, 0.000000, 41.000000, 3.000000,3.000000,1.000000,6.000000,0.500000,1.000000
66, test, 4, no_probe, 4, 2, 3, 2, 3, 0.4, 0.6, left, 1, 0.3, 0.4, 0.6, 0.7, 2.467447800000059, 0, , , 0.000000, 41.000000, 1.000000,2.000000,1.000000,6.000000,0.500000,1.000000
66, test, 4, probe, 5, 1, 2, 2, 1, 0.3, 0.4, right, 2, 0.3, 0.4, 0.6, 0.7, 2.0056981999999834, 0, 27.1693115234375, 1.2666633000000047, 0.000000, 41.000000, 2.000000,2.000000,1.000000,6.000000,0.500000,1.000000
66, test, 4, no_probe, 6, 1, 4, 4, 1, 0.3, 0.7, right, 2, 0.3, 0.4, 0.6, 0.7, 0.6947012000000541, 0, , , 0.000000, 41.000000, 1.000000,2.000000,1.000000,6.000000,0.500000,1.000000
66, test, 4, probe, 7, 3, 1, 1, 3, 0.6, 0.3, right, 2, 0.3, 0.4, 0.6, 0.7, 1.1916354999999612, 0, 34.524017333984375, 1.2500132000000121, 0.000000, 41.000000, 2.000000,2.000000,1.000000,6.000000,0.500000,1.000000
66, test, 4, no_probe, 8, 3, 1, 3, 1, 0.6, 0.3, left, 1, 0.3, 0.4, 0.6, 0.7, 2.8478139000000056, 0, , , 0.000000, 41.000000, 1.000000,3.000000,1.000000,6.000000,0.500000,1.000000
66, test, 4, no_probe, 9, 1, 2, 1, 2, 0.3, 0.4, left, 1, 0.3, 0.4, 0.6, 0.7, 0.9865025000000287, 1, , , 1.000000, 42.000000, 2.000000,3.000000,1.000000,6.000000,0.500000,1.000000
66, test, 4, probe, 10, 4, 1, 4, 1, 0.7, 0.3, left, 1, 0.3, 0.4, 0.6, 0.7, 1.415829400000007, 1, 63.29339599609375, 1.3000313999999662, 2.000000, 43.000000, 3.000000,3.000000,1.000000,6.000000,0.500000,1.000000
66, test, 4, no_probe, 11, 3, 1, 1, 3, 0.6, 0.3, right, 2, 0.3, 0.4, 0.6, 0.7, 1.7920764000000418, 0, , , 2.000000, 43.000000, 1.000000,3.000000,1.000000,6.000000,0.500000,1.000000
66, test, 4, no_probe, 12, 3, 1, 3, 1, 0.6, 0.3, left, 1, 0.3, 0.4, 0.6, 0.7, 5.210721499999863, 1, , , 3.000000, 44.000000, 2.000000,3.000000,1.000000,6.000000,0.500000,1.000000
66, test, 4, probe, 13, 4, 1, 4, 1, 0.7, 0.3, left, 1, 0.3, 0.4, 0.6, 0.7, 2.6271570999999767, 1, 49.99761962890625, 1.3000569000000723, 4.000000, 45.000000, 3.000000,3.000000,1.000000,6.000000,0.500000,1.000000
66, test, 4, no_probe, 14, 3, 2, 3, 2, 0.6, 0.4, left, 1, 0.3, 0.4, 0.6, 0.7, 1.6587188000000879, 1, , , 5.000000, 46.000000, 1.000000,3.000000,1.000000,6.000000,0.500000,1.000000
66, test, 4, no_probe, 15, 3, 4, 4, 3, 0.6, 0.7, right, 2, 0.3, 0.4, 0.6, 0.7, 1.0182824000000892, 0, , , 5.000000, 46.000000, 2.000000,3.000000,1.000000,6.000000,0.500000,1.000000
66, test, 4, probe, 16, 4, 2, 2, 4, 0.7, 0.4, right, 2, 0.3, 0.4, 0.6, 0.7, 2.559243400000014, 0, 28.50299072265625, 1.4666372000001502, 5.000000, 46.000000, 3.000000,3.000000,1.000000,6.000000,0.500000,1.000000
66, test, 4, no_probe, 17, 3, 2, 2, 3, 0.6, 0.4, right, 2, 0.3, 0.4, 0.6, 0.7, 2.0653577999999015, 1, , , 6.000000, 47.000000, 1.000000,2.000000,1.000000,6.000000,0.500000,1.000000
66, test, 4, probe, 18, 2, 4, 4, 2, 0.4, 0.7, right, 2, 0.3, 0.4, 0.6, 0.7, 2.66365780000001, 0, 49.9981689453125, 1.000001999999995, 6.000000, 47.000000, 2.000000,2.000000,1.000000,6.000000,0.500000,1.000000
66, test, 4, no_probe, 19, 1, 2, 1, 2, 0.3, 0.4, left, 1, 0.3, 0.4, 0.6, 0.7, 1.8807151999999405, 1, , , 7.000000, 48.000000, 1.000000,3.000000,1.000000,6.000000,0.500000,1.000000
66, test, 4, no_probe, 20, 3, 2, 3, 2, 0.6, 0.4, left, 1, 0.3, 0.4, 0.6, 0.7, 1.6322737000000416, 1, , , 8.000000, 49.000000, 2.000000,3.000000,1.000000,6.000000,0.500000,1.000000
66, test, 4, probe, 21, 4, 2, 2, 4, 0.7, 0.4, right, 2, 0.3, 0.4, 0.6, 0.7, 2.566682000000128, 1, 29.063201904296875, 3.4499945000000025, 9.000000, 50.000000, 3.000000,3.000000,1.000000,6.000000,0.500000,1.000000
66, test, 4, no_probe, 22, 1, 2, 1, 2, 0.3, 0.4, left, 1, 0.3, 0.4, 0.6, 0.7, 2.190232100000003, 0, , , 9.000000, 50.000000, 1.000000,3.000000,1.000000,6.000000,0.500000,1.000000
66, test, 4, no_probe, 23, 1, 4, 4, 1, 0.3, 0.7, right, 2, 0.3, 0.4, 0.6, 0.7, 0.8337505000001784, 0, , , 9.000000, 50.000000, 2.000000,3.000000,1.000000,6.000000,0.500000,1.000000
66, test, 4, probe, 24, 2, 4, 4, 2, 0.4, 0.7, right, 2, 0.3, 0.4, 0.6, 0.7, 2.245007600000008, 1, 1, 2.6500221999999667, 10.000000, 51.000000, 3.000000,3.000000,1.000000,6.000000,0.500000,1.000000
66, test, 4, no_probe, 25, 2, 3, 2, 3, 0.4, 0.6, left, 1, 0.3, 0.4, 0.6, 0.7, 1.6091659000001073, 0, , , 10.000000, 51.000000, 1.000000,2.000000,1.000000,6.000000,0.500000,1.000000
66, test, 5, no_probe, 1, 1, 4, 1, 4, 0.3, 0.7, left, 1, 0.3, 0.4, 0.6, 0.7, 2.104064499999822, 0, , , 0.000000, 51.000000, 1.000000,2.000000,1.000000,6.000000,0.500000,1.000000
66, test, 5, probe, 2, 1, 3, 1, 3, 0.3, 0.6, left, 1, 0.3, 0.4, 0.6, 0.7, 1.117636599999969, 0, 38.475677490234375, 1.2666589999998905, 0.000000, 51.000000, 2.000000,2.000000,1.000000,6.000000,0.500000,1.000000
66, test, 5, no_probe, 3, 4, 1, 4, 1, 0.7, 0.3, left, 1, 0.3, 0.4, 0.6, 0.7, 1.254806500000086, 0, , , 0.000000, 51.000000, 1.000000,3.000000,1.000000,6.000000,0.500000,1.000000
66, test, 5, no_probe, 4, 1, 2, 1, 2, 0.3, 0.4, left, 1, 0.3, 0.4, 0.6, 0.7, 1.3103450999999495, 0, , , 0.000000, 51.000000, 2.000000,3.000000,1.000000,6.000000,0.500000,1.000000
66, test, 5, probe, 5, 2, 3, 2, 3, 0.4, 0.6, left, 1, 0.3, 0.4, 0.6, 0.7, 0.5722925000000032, 1, 32.846405029296875, 1.0666438000000653, 1.000000, 52.000000, 3.000000,3.000000,1.000000,6.000000,0.500000,1.000000
66, test, 5, no_probe, 6, 4, 2, 2, 4, 0.7, 0.4, right, 2, 0.3, 0.4, 0.6, 0.7, 1.0453449999999975, 1, , , 2.000000, 53.000000, 1.000000,2.000000,1.000000,6.000000,0.500000,1.000000
66, test, 5, probe, 7, 3, 4, 4, 3, 0.6, 0.7, right, 2, 0.3, 0.4, 0.6, 0.7, 1.9886129000001347, 1, 77.80670166015625, 1.5330063000001246, 3.000000, 54.000000, 2.000000,2.000000,1.000000,6.000000,0.500000,1.000000
66, test, 5, no_probe, 8, 4, 1, 1, 4, 0.7, 0.3, right, 2, 0.3, 0.4, 0.6, 0.7, 2.249167099999795, 0, , , 3.000000, 54.000000, 1.000000,2.000000,1.000000,6.000000,0.500000,1.000000
66, test, 5, probe, 9, 2, 1, 1, 2, 0.4, 0.3, right, 2, 0.3, 0.4, 0.6, 0.7, 1.5955816999999115, 0, 5.445587158203125, 1.8666451999999936, 3.000000, 54.000000, 2.000000,2.000000,1.000000,6.000000,0.500000,1.000000
66, test, 5, no_probe, 10, 3, 1, 3, 1, 0.6, 0.3, left, 1, 0.3, 0.4, 0.6, 0.7, 1.5885052999999516, 0, , , 3.000000, 54.000000, 1.000000,3.000000,1.000000,6.000000,0.500000,1.000000
66, test, 5, no_probe, 11, 3, 1, 1, 3, 0.6, 0.3, right, 2, 0.3, 0.4, 0.6, 0.7, 0.41119419999995444, 1, , , 4.000000, 55.000000, 2.000000,3.000000,1.000000,6.000000,0.500000,1.000000
66, test, 5, probe, 12, 4, 3, 3, 4, 0.7, 0.6, right, 2, 0.3, 0.4, 0.6, 0.7, 1.0644645000002129, 0, 49.998291015625, 0.9333621999999195, 4.000000, 55.000000, 3.000000,3.000000,1.000000,6.000000,0.500000,1.000000
66, test, 5, no_probe, 13, 4, 2, 2, 4, 0.7, 0.4, right, 2, 0.3, 0.4, 0.6, 0.7, 0.9927086999998664, 1, , , 5.000000, 56.000000, 1.000000,2.000000,1.000000,6.000000,0.500000,1.000000
66, test, 5, probe, 14, 1, 4, 1, 4, 0.3, 0.7, left, 1, 0.3, 0.4, 0.6, 0.7, 2.850828999999976, 1, 69.4395751953125, 1.4333243999999468, 6.000000, 57.000000, 2.000000,2.000000,1.000000,6.000000,0.500000,1.000000
66, test, 5, no_probe, 15, 3, 2, 3, 2, 0.6, 0.4, left, 1, 0.3, 0.4, 0.6, 0.7, 1.4154175000001032, 1, , , 7.000000, 58.000000, 1.000000,3.000000,1.000000,6.000000,0.500000,1.000000
66, test, 5, no_probe, 16, 1, 2, 1, 2, 0.3, 0.4, left, 1, 0.3, 0.4, 0.6, 0.7, 1.379707000000053, 1, , , 8.000000, 59.000000, 2.000000,3.000000,1.000000,6.000000,0.500000,1.000000
66, test, 5, probe, 17, 3, 4, 4, 3, 0.6, 0.7, right, 2, 0.3, 0.4, 0.6, 0.7, 2.9543992999999773, 0, 36.6575927734375, 1.2499821000001248, 8.000000, 59.000000, 3.000000,3.000000,1.000000,6.000000,0.500000,1.000000
66, test, 5, no_probe, 18, 4, 2, 2, 4, 0.7, 0.4, right, 2, 0.3, 0.4, 0.6, 0.7, 1.4850862000000689, 1, , , 9.000000, 60.000000, 1.000000,3.000000,1.000000,6.000000,0.500000,1.000000
66, test, 5, no_probe, 19, 1, 2, 1, 2, 0.3, 0.4, left, 1, 0.3, 0.4, 0.6, 0.7, 1.2797926000000643, 0, , , 9.000000, 60.000000, 2.000000,3.000000,1.000000,6.000000,0.500000,1.000000
66, test, 5, probe, 20, 3, 2, 2, 3, 0.6, 0.4, right, 2, 0.3, 0.4, 0.6, 0.7, 0.8139682999999422, 1, 72.04730224609375, 1.283363399999871, 10.000000, 61.000000, 3.000000,3.000000,1.000000,6.000000,0.500000,1.000000
66, test, 5, no_probe, 21, 3, 1, 1, 3, 0.6, 0.3, right, 2, 0.3, 0.4, 0.6, 0.7, 3.130590100000063, 0, , , 10.000000, 61.000000, 1.000000,3.000000,1.000000,6.000000,0.500000,1.000000
66, test, 5, no_probe, 22, 1, 2, 1, 2, 0.3, 0.4, left, 1, 0.3, 0.4, 0.6, 0.7, 2.914510000000064, 1, , , 11.000000, 62.000000, 2.000000,3.000000,1.000000,6.000000,0.500000,1.000000
66, test, 5, probe, 23, 3, 1, 1, 3, 0.6, 0.3, right, 2, 0.3, 0.4, 0.6, 0.7, 2.471208499999875, 0, 36.988250732421875, 1.0333307000000787, 11.000000, 62.000000, 3.000000,3.000000,1.000000,6.000000,0.500000,1.000000
66, test, 5, no_probe, 24, 4, 2, 4, 2, 0.7, 0.4, left, 1, 0.3, 0.4, 0.6, 0.7, 0.7216091000000233, 1, , , 12.000000, 63.000000, 1.000000,2.000000,1.000000,6.000000,0.500000,1.000000
66, test, 5, probe, 25, 3, 4, 3, 4, 0.6, 0.7, left, 1, 0.3, 0.4, 0.6, 0.7, 1.2107242999998107, 1, 49.99835205078125, 0.8999624000000495, 13.000000, 64.000000, 2.000000,2.000000,1.000000,6.000000,0.500000,1.000000
66, test, 6, no_probe, 1, 1, 3, 3, 1, 0.3, 0.6, right, 2, 0.3, 0.4, 0.6, 0.7, 3.1062173000000257, 1, , , 1.000000, 65.000000, 1.000000,3.000000,1.000000,6.000000,0.500000,1.000000
66, test, 6, no_probe, 2, 4, 2, 4, 2, 0.7, 0.4, left, 1, 0.3, 0.4, 0.6, 0.7, 2.363830099999859, 1, , , 2.000000, 66.000000, 2.000000,3.000000,1.000000,6.000000,0.500000,1.000000
66, test, 6, probe, 3, 3, 4, 4, 3, 0.6, 0.7, right, 2, 0.3, 0.4, 0.6, 0.7, 1.0939092000000983, 1, 75.07040405273438, 1.316237000000001, 3.000000, 67.000000, 3.000000,3.000000,1.000000,6.000000,0.500000,1.000000
66, test, 6, no_probe, 4, 2, 1, 2, 1, 0.4, 0.3, left, 1, 0.3, 0.4, 0.6, 0.7, 2.00621480000018, 0, , , 3.000000, 67.000000, 1.000000,2.000000,1.000000,6.000000,0.500000,1.000000
66, test, 6, probe, 5, 2, 1, 2, 1, 0.4, 0.3, left, 1, 0.3, 0.4, 0.6, 0.7, 1.170814000000064, 0, 30.22088623046875, 1.049985500000048, 3.000000, 67.000000, 2.000000,2.000000,1.000000,6.000000,0.500000,1.000000
66, test, 6, no_probe, 6, 4, 1, 4, 1, 0.7, 0.3, left, 1, 0.3, 0.4, 0.6, 0.7, 1.110575400000016, 1, , , 4.000000, 68.000000, 1.000000,2.000000,1.000000,6.000000,0.500000,1.000000
66, test, 6, probe, 7, 3, 1, 3, 1, 0.6, 0.3, left, 1, 0.3, 0.4, 0.6, 0.7, 1.1355548999999883, 1, 49.997100830078125, 1.5833146999998462, 5.000000, 69.000000, 2.000000,2.000000,1.000000,6.000000,0.500000,1.000000
66, test, 6, no_probe, 8, 2, 1, 1, 2, 0.4, 0.3, right, 2, 0.3, 0.4, 0.6, 0.7, 1.3629673000000366, 0, , , 5.000000, 69.000000, 1.000000,3.000000,1.000000,6.000000,0.500000,1.000000
66, test, 6, no_probe, 9, 1, 2, 1, 2, 0.3, 0.4, left, 1, 0.3, 0.4, 0.6, 0.7, 1.4062106000001222, 0, , , 5.000000, 69.000000, 2.000000,3.000000,1.000000,6.000000,0.500000,1.000000
66, test, 6, probe, 10, 3, 1, 3, 1, 0.6, 0.3, left, 1, 0.3, 0.4, 0.6, 0.7, 0.8660858000000644, 0, 33.83251953125, 1.1833403999999064, 5.000000, 69.000000, 3.000000,3.000000,1.000000,6.000000,0.500000,1.000000
66, test, 6, no_probe, 11, 4, 1, 1, 4, 0.7, 0.3, right, 2, 0.3, 0.4, 0.6, 0.7, 1.2282061999999314, 1, , , 6.000000, 70.000000, 1.000000,2.000000,1.000000,6.000000,0.500000,1.000000
66, test, 6, probe, 12, 1, 2, 1, 2, 0.3, 0.4, left, 1, 0.3, 0.4, 0.6, 0.7, 1.2296245999998519, 0, 49.9986572265625, 0.7332837999999811, 6.000000, 70.000000, 2.000000,2.000000,1.000000,6.000000,0.500000,1.000000
66, test, 6, no_probe, 13, 3, 1, 1, 3, 0.6, 0.3, right, 2, 0.3, 0.4, 0.6, 0.7, 0.7462588999999298, 0, , , 6.000000, 70.000000, 1.000000,3.000000,1.000000,6.000000,0.500000,1.000000
66, test, 6, no_probe, 14, 1, 2, 2, 1, 0.3, 0.4, right, 2, 0.3, 0.4, 0.6, 0.7, 1.1141778000001068, 0, , , 6.000000, 70.000000, 2.000000,3.000000,1.000000,6.000000,0.500000,1.000000
66, test, 6, probe, 15, 3, 4, 4, 3, 0.6, 0.7, right, 2, 0.3, 0.4, 0.6, 0.7, 2.302061400000184, 0, 30.645050048828125, 4.6999803999999585, 6.000000, 70.000000, 3.000000,3.000000,1.000000,6.000000,0.500000,1.000000
66, test, 6, no_probe, 16, 3, 2, 3, 2, 0.6, 0.4, left, 1, 0.3, 0.4, 0.6, 0.7, 1.0788407000000007, 0, , , 6.000000, 70.000000, 1.000000,2.000000,1.000000,6.000000,0.500000,1.000000
66, test, 6, probe, 17, 4, 3, 4, 3, 0.7, 0.6, left, 1, 0.3, 0.4, 0.6, 0.7, 2.731843399999889, 1, 49.99884033203125, 0.6332580999999209, 7.000000, 71.000000, 2.000000,2.000000,1.000000,6.000000,0.500000,1.000000
66, test, 6, no_probe, 18, 3, 2, 2, 3, 0.6, 0.4, right, 2, 0.3, 0.4, 0.6, 0.7, 1.701756800000112, 0, , , 7.000000, 71.000000, 1.000000,3.000000,1.000000,6.000000,0.500000,1.000000
66, test, 6, no_probe, 19, 4, 2, 4, 2, 0.7, 0.4, left, 1, 0.3, 0.4, 0.6, 0.7, 0.6737233000001197, 1, , , 8.000000, 72.000000, 2.000000,3.000000,1.000000,6.000000,0.500000,1.000000
66, test, 6, probe, 20, 1, 2, 1, 2, 0.3, 0.4, left, 1, 0.3, 0.4, 0.6, 0.7, 0.8609724000000369, 0, 49.99896240234375, 0.5666787999998633, 8.000000, 72.000000, 3.000000,3.000000,1.000000,6.000000,0.500000,1.000000
66, test, 6, no_probe, 21, 3, 2, 3, 2, 0.6, 0.4, left, 1, 0.3, 0.4, 0.6, 0.7, 3.324788500000068, 0, , , 8.000000, 72.000000, 1.000000,3.000000,1.000000,6.000000,0.500000,1.000000
66, test, 6, no_probe, 22, 1, 3, 1, 3, 0.3, 0.6, left, 1, 0.3, 0.4, 0.6, 0.7, 0.6102032999999665, 0, , , 8.000000, 72.000000, 2.000000,3.000000,1.000000,6.000000,0.500000,1.000000
66, test, 6, probe, 23, 1, 2, 2, 1, 0.3, 0.4, right, 2, 0.3, 0.4, 0.6, 0.7, 0.6184396000001016, 0, 49.9990234375, 0.5332805000000462, 8.000000, 72.000000, 3.000000,3.000000,1.000000,6.000000,0.500000,1.000000
66, test, 6, no_probe, 24, 3, 1, 1, 3, 0.6, 0.3, right, 2, 0.3, 0.4, 0.6, 0.7, 0.9765355000001819, 1, , , 9.000000, 73.000000, 1.000000,3.000000,1.000000,6.000000,0.500000,1.000000
66, test, 6, no_probe, 25, 2, 1, 2, 1, 0.4, 0.3, left, 1, 0.3, 0.4, 0.6, 0.7, 2.7953964000000724, 1, , , 10.000000, 74.000000, 2.000000,3.000000,1.000000,6.000000,0.500000,1.000000
66, test, 7, no_probe, 1, 2, 1, 1, 2, 0.4, 0.3, right, 2, 0.3, 0.4, 0.6, 0.7, 1.6253240000000915, 0, , , 0.000000, 74.000000, 1.000000,2.000000,1.000000,6.000000,0.500000,1.000000
66, test, 7, probe, 2, 3, 4, 3, 4, 0.6, 0.7, left, 1, 0.3, 0.4, 0.6, 0.7, 1.492887699999983, 0, 49.9990234375, 0.5333101999999599, 0.000000, 74.000000, 2.000000,2.000000,1.000000,6.000000,0.500000,1.000000
66, test, 7, no_probe, 3, 2, 3, 3, 2, 0.4, 0.6, right, 2, 0.3, 0.4, 0.6, 0.7, 2.740807800000084, 1, , , 1.000000, 75.000000, 1.000000,2.000000,1.000000,6.000000,0.500000,1.000000
66, test, 7, probe, 4, 4, 2, 4, 2, 0.7, 0.4, left, 1, 0.3, 0.4, 0.6, 0.7, 2.3970266000001175, 0, 49.998992919921875, 0.5499646999999186, 1.000000, 75.000000, 2.000000,2.000000,1.000000,6.000000,0.500000,1.000000
66, test, 7, no_probe, 5, 1, 3, 1, 3, 0.3, 0.6, left, 1, 0.3, 0.4, 0.6, 0.7, 2.7715716000000157, 0, , , 1.000000, 75.000000, 1.000000,2.000000,1.000000,6.000000,0.500000,1.000000
66, test, 7, probe, 6, 4, 1, 4, 1, 0.7, 0.3, left, 1, 0.3, 0.4, 0.6, 0.7, 1.4133629000000383, 0, 49.99908447265625, 0.5002213000000211, 1.000000, 75.000000, 2.000000,2.000000,1.000000,6.000000,0.500000,1.000000
66, test, 7, no_probe, 7, 2, 3, 3, 2, 0.4, 0.6, right, 2, 0.3, 0.4, 0.6, 0.7, 0.560295300000007, 0, , , 1.000000, 75.000000, 1.000000,3.000000,1.000000,6.000000,0.500000,1.000000
66, test, 7, no_probe, 8, 2, 4, 2, 4, 0.4, 0.7, left, 1, 0.3, 0.4, 0.6, 0.7, 0.6929130999999416, 1, , , 2.000000, 76.000000, 2.000000,3.000000,1.000000,6.000000,0.500000,1.000000
66, test, 7, probe, 9, 3, 4, 4, 3, 0.6, 0.7, right, 2, 0.3, 0.4, 0.6, 0.7, 2.6261339999998654, 1, 49.99908447265625, 0.49998489999984486, 3.000000, 77.000000, 3.000000,3.000000,1.000000,6.000000,0.500000,1.000000
66, test, 7, no_probe, 10, 2, 4, 4, 2, 0.4, 0.7, right, 2, 0.3, 0.4, 0.6, 0.7, 1.950012900000047, 0, , , 3.000000, 77.000000, 1.000000,3.000000,1.000000,6.000000,0.500000,1.000000
66, test, 7, no_probe, 11, 4, 3, 3, 4, 0.7, 0.6, right, 2, 0.3, 0.4, 0.6, 0.7, 1.4723830999998881, 1, , , 4.000000, 78.000000, 2.000000,3.000000,1.000000,6.000000,0.500000,1.000000
66, test, 7, probe, 12, 4, 2, 4, 2, 0.7, 0.4, left, 1, 0.3, 0.4, 0.6, 0.7, 2.322370899999896, 1, 87.26974487304688, 1.1833403000000544, 5.000000, 79.000000, 3.000000,3.000000,1.000000,6.000000,0.500000,1.000000
66, test, 7, no_probe, 13, 2, 1, 1, 2, 0.4, 0.3, right, 2, 0.3, 0.4, 0.6, 0.7, 1.9713620999998511, 1, , , 6.000000, 80.000000, 1.000000,2.000000,1.000000,6.000000,0.500000,1.000000
66, test, 7, probe, 14, 1, 4, 1, 4, 0.3, 0.7, left, 1, 0.3, 0.4, 0.6, 0.7, 2.00551130000008, 1, 49.998779296875, 0.6665385999999671, 7.000000, 81.000000, 2.000000,2.000000,1.000000,6.000000,0.500000,1.000000
66, test, 7, no_probe, 15, 2, 4, 4, 2, 0.4, 0.7, right, 2, 0.3, 0.4, 0.6, 0.7, 2.8715607999999975, 1, , , 8.000000, 82.000000, 1.000000,2.000000,1.000000,6.000000,0.500000,1.000000
66, test, 7, probe, 16, 1, 3, 1, 3, 0.3, 0.6, left, 1, 0.3, 0.4, 0.6, 0.7, 1.81815830000005, 0, 21.54180908203125, 2.516625900000008, 8.000000, 82.000000, 2.000000,2.000000,1.000000,6.000000,0.500000,1.000000
66, test, 7, no_probe, 17, 2, 4, 4, 2, 0.4, 0.7, right, 2, 0.3, 0.4, 0.6, 0.7, 2.0285544999999274, 0, , , 8.000000, 82.000000, 1.000000,3.000000,1.000000,6.000000,0.500000,1.000000
66, test, 7, no_probe, 18, 4, 3, 4, 3, 0.7, 0.6, left, 1, 0.3, 0.4, 0.6, 0.7, 1.8015086000000338, 1, , , 9.000000, 83.000000, 2.000000,3.000000,1.000000,6.000000,0.500000,1.000000
66, test, 7, probe, 19, 2, 3, 3, 2, 0.4, 0.6, right, 2, 0.3, 0.4, 0.6, 0.7, 3.0424416000000747, 1, 15.777557373046875, 2.4666752000000542, 10.000000, 84.000000, 3.000000,3.000000,1.000000,6.000000,0.500000,1.000000
66, test, 7, no_probe, 20, 2, 4, 4, 2, 0.4, 0.7, right, 2, 0.3, 0.4, 0.6, 0.7, 2.13417319999985, 0, , , 10.000000, 84.000000, 1.000000,3.000000,1.000000,6.000000,0.500000,1.000000
66, test, 7, no_probe, 21, 3, 1, 1, 3, 0.6, 0.3, right, 2, 0.3, 0.4, 0.6, 0.7, 0.8704416000000492, 1, , , 11.000000, 85.000000, 2.000000,3.000000,1.000000,6.000000,0.500000,1.000000
66, test, 7, probe, 22, 2, 4, 2, 4, 0.4, 0.7, left, 1, 0.3, 0.4, 0.6, 0.7, 1.9918488000000707, 1, 81.5782470703125, 1.8833704000001035, 12.000000, 86.000000, 3.000000,3.000000,1.000000,6.000000,0.500000,1.000000
66, test, 7, no_probe, 23, 1, 4, 1, 4, 0.3, 0.7, left, 1, 0.3, 0.4, 0.6, 0.7, 1.8130244999999832, 0, , , 12.000000, 86.000000, 1.000000,2.000000,1.000000,6.000000,0.500000,1.000000
66, test, 7, probe, 24, 3, 2, 3, 2, 0.6, 0.4, left, 1, 0.3, 0.4, 0.6, 0.7, 2.6460305000000517, 1, 77.61907958984375, 2.866691400000036, 13.000000, 87.000000, 2.000000,2.000000,1.000000,6.000000,0.500000,1.000000
66, test, 7, no_probe, 25, 1, 3, 1, 3, 0.3, 0.6, left, 1, 0.3, 0.4, 0.6, 0.7, 2.695384499999818, 1, , , 14.000000, 88.000000, 1.000000,3.000000,1.000000,6.000000,0.500000,1.000000
66, test, 8, no_probe, 1, 4, 2, 2, 4, 0.7, 0.4, right, 2, 0.3, 0.4, 0.6, 0.7, 0.5342405999999755, 1, , , 1.000000, 89.000000, 1.000000,3.000000,1.000000,6.000000,0.500000,1.000000
66, test, 8, no_probe, 2, 3, 2, 3, 2, 0.6, 0.4, left, 1, 0.3, 0.4, 0.6, 0.7, 2.225101900000027, 0, , , 1.000000, 89.000000, 2.000000,3.000000,1.000000,6.000000,0.500000,1.000000
66, test, 8, probe, 3, 2, 3, 2, 3, 0.4, 0.6, left, 1, 0.3, 0.4, 0.6, 0.7, 1.378866300000027, 1, 82.29727172851562, 1.4496156000000155, 2.000000, 90.000000, 3.000000,3.000000,1.000000,6.000000,0.500000,1.000000
66, test, 8, no_probe, 4, 1, 4, 4, 1, 0.3, 0.7, right, 2, 0.3, 0.4, 0.6, 0.7, 1.4414644000000862, 0, , , 2.000000, 90.000000, 1.000000,3.000000,1.000000,6.000000,0.500000,1.000000
66, test, 8, no_probe, 5, 1, 2, 1, 2, 0.3, 0.4, left, 1, 0.3, 0.4, 0.6, 0.7, 1.3573992999999973, 0, , , 2.000000, 90.000000, 2.000000,3.000000,1.000000,6.000000,0.500000,1.000000
66, test, 8, probe, 6, 2, 4, 2, 4, 0.4, 0.7, left, 1, 0.3, 0.4, 0.6, 0.7, 2.728352900000118, 1, 78.56317138671875, 1.5166689999998653, 3.000000, 91.000000, 3.000000,3.000000,1.000000,6.000000,0.500000,1.000000
66, test, 8, no_probe, 7, 2, 4, 2, 4, 0.4, 0.7, left, 1, 0.3, 0.4, 0.6, 0.7, 1.3416283999999905, 0, , , 3.000000, 91.000000, 1.000000,2.000000,1.000000,6.000000,0.500000,1.000000
66, test, 8, probe, 8, 4, 1, 4, 1, 0.7, 0.3, left, 1, 0.3, 0.4, 0.6, 0.7, 1.2943625999998858, 1, 81.49551391601562, 1.4499984999999924, 4.000000, 92.000000, 2.000000,2.000000,1.000000,6.000000,0.500000,1.000000
66, test, 8, no_probe, 9, 4, 3, 3, 4, 0.7, 0.6, right, 2, 0.3, 0.4, 0.6, 0.7, 1.2876340000000255, 1, , , 5.000000, 93.000000, 1.000000,3.000000,1.000000,6.000000,0.500000,1.000000
66, test, 8, no_probe, 10, 2, 3, 2, 3, 0.4, 0.6, left, 1, 0.3, 0.4, 0.6, 0.7, 2.47849240000005, 0, , , 5.000000, 93.000000, 2.000000,3.000000,1.000000,6.000000,0.500000,1.000000
66, test, 8, probe, 11, 2, 1, 2, 1, 0.4, 0.3, left, 1, 0.3, 0.4, 0.6, 0.7, 1.0127469999999903, 1, 78.93936157226562, 1.416665299999977, 6.000000, 94.000000, 3.000000,3.000000,1.000000,6.000000,0.500000,1.000000
66, test, 8, no_probe, 12, 4, 3, 3, 4, 0.7, 0.6, right, 2, 0.3, 0.4, 0.6, 0.7, 2.2390685000000303, 0, , , 6.000000, 94.000000, 1.000000,2.000000,1.000000,6.000000,0.500000,1.000000
66, test, 8, probe, 13, 2, 4, 2, 4, 0.4, 0.7, left, 1, 0.3, 0.4, 0.6, 0.7, 0.7675453000001653, 0, 68.37750244140625, 1.9333074999999553, 6.000000, 94.000000, 2.000000,2.000000,1.000000,6.000000,0.500000,1.000000
66, test, 8, no_probe, 14, 2, 3, 2, 3, 0.4, 0.6, left, 1, 0.3, 0.4, 0.6, 0.7, 1.3997936000000664, 1, , , 7.000000, 95.000000, 1.000000,3.000000,1.000000,6.000000,0.500000,1.000000
66, test, 8, no_probe, 15, 2, 1, 1, 2, 0.4, 0.3, right, 2, 0.3, 0.4, 0.6, 0.7, 1.4274861999999757, 0, , , 7.000000, 95.000000, 2.000000,3.000000,1.000000,6.000000,0.500000,1.000000
66, test, 8, probe, 16, 4, 3, 3, 4, 0.7, 0.6, right, 2, 0.3, 0.4, 0.6, 0.7, 1.2728892000000087, 1, 79.9630126953125, 1.74997570000005, 8.000000, 96.000000, 3.000000,3.000000,1.000000,6.000000,0.500000,1.000000
66, test, 8, no_probe, 17, 2, 1, 2, 1, 0.4, 0.3, left, 1, 0.3, 0.4, 0.6, 0.7, 1.2847850999999082, 1, , , 9.000000, 97.000000, 1.000000,2.000000,1.000000,6.000000,0.500000,1.000000
66, test, 8, probe, 18, 3, 1, 1, 3, 0.6, 0.3, right, 2, 0.3, 0.4, 0.6, 0.7, 2.266521100000091, 0, 83.65966796875, 1.5166847000000416, 9.000000, 97.000000, 2.000000,2.000000,1.000000,6.000000,0.500000,1.000000
66, test, 8, no_probe, 19, 2, 4, 2, 4, 0.4, 0.7, left, 1, 0.3, 0.4, 0.6, 0.7, 0.7350131999999121, 0, , , 9.000000, 97.000000, 1.000000,2.000000,1.000000,6.000000,0.500000,1.000000
66, test, 8, probe, 20, 3, 4, 4, 3, 0.6, 0.7, right, 2, 0.3, 0.4, 0.6, 0.7, 0.4265599000000293, 0, 78.89346313476562, 1.366654599999947, 9.000000, 97.000000, 2.000000,2.000000,1.000000,6.000000,0.500000,1.000000
66, test, 8, no_probe, 21, 3, 4, 4, 3, 0.6, 0.7, right, 2, 0.3, 0.4, 0.6, 0.7, 1.1913207000000057, 1, , , 10.000000, 98.000000, 1.000000,2.000000,1.000000,6.000000,0.500000,1.000000
66, test, 8, probe, 22, 4, 3, 4, 3, 0.7, 0.6, left, 1, 0.3, 0.4, 0.6, 0.7, 1.2613638000000265, 1, 82.1195068359375, 1.5166467000001376, 11.000000, 99.000000, 2.000000,2.000000,1.000000,6.000000,0.500000,1.000000
66, test, 8, no_probe, 23, 2, 1, 2, 1, 0.4, 0.3, left, 1, 0.3, 0.4, 0.6, 0.7, 2.194432099999858, 0, , , 11.000000, 99.000000, 1.000000,2.000000,1.000000,6.000000,0.500000,1.000000
66, test, 8, probe, 24, 2, 4, 2, 4, 0.4, 0.7, left, 1, 0.3, 0.4, 0.6, 0.7, 0.9352939000000333, 1, 79.15402221679688, 1.3000508000000082, 12.000000, 100.000000, 2.000000,2.000000,1.000000,6.000000,0.500000,1.000000
66, test, 8, no_probe, 25, 1, 3, 1, 3, 0.3, 0.6, left, 1, 0.3, 0.4, 0.6, 0.7, 1.290937299999996, 1, , , 13.000000, 101.000000, 1.000000,3.000000,1.000000,6.000000,0.500000,1.000000
