subject, block_type, block, thought probe, trial, chosen, unchosen, offer_left_image, offer_right_image, exp_value_chosen, exp_value_unchosen, choice_location, choice_key, exp_value1, exp_value2, exp_value3, exp_value4, RT, reward, vas, RT_vas, coins_per_block, coins_per_task, count_to_prob, ntrial_to_prob, ITI_duration,RT_deadline,choice_feedback_duration,outcome_duration
50, test, 1, no_probe, 1, 4, 2, 4, 2, 0.7, 0.4, left, 1, 0.3, 0.4, 0.6, 0.7, 0.9446225999854505, 0, , , 0.000000, 0.000000, 1.000000,2.000000,1.000000,6.000000,0.500000,1.000000
50, test, 1, probe, 2, 1, 4, 4, 1, 0.3, 0.7, right, 2, 0.3, 0.4, 0.6, 0.7, 0.7999427998438478, 0, 86.27560424804688, 6.116500300122425, 0.000000, 0.000000, 2.000000,2.000000,1.000000,6.000000,0.500000,1.000000
50, test, 1, no_probe, 3, 1, 4, 1, 4, 0.3, 0.7, left, 1, 0.3, 0.4, 0.6, 0.7, 0.6951403999701142, 1, , , 1.000000, 1.000000, 1.000000,3.000000,1.000000,6.000000,0.500000,1.000000
50, test, 1, no_probe, 4, 2, 4, 4, 2, 0.4, 0.7, right, 2, 0.3, 0.4, 0.6, 0.7, 0.7300783998798579, 0, , , 1.000000, 1.000000, 2.000000,3.000000,1.000000,6.000000,0.500000,1.000000
50, test, 1, probe, 5, 2, 4, 4, 2, 0.4, 0.7, right, 2, 0.3, 0.4, 0.6, 0.7, 0.6573773000854999, 0, 89.76254272460938, 5.133299399865791, 1.000000, 1.000000, 3.000000,3.000000,1.000000,6.000000,0.500000,1.000000
50, test, 1, no_probe, 6, 1, 3, 1, 3, 0.3, 0.6, left, 1, 0.3, 0.4, 0.6, 0.7, 0.5932616000063717, 0, , , 1.000000, 1.000000, 1.000000,2.000000,1.000000,6.000000,0.500000,1.000000
50, test, 1, no_probe, 1, 3, 2, 3, 2, 0.6, 0.4, left, 1, 0.3, 0.4, 0.6, 0.7, 0.42555110016837716, 0, , , 0.000000, 1.000000, 1.000000,3.000000,1.000000,6.000000,0.500000,1.000000
50, test, 1, no_probe, 2, 2, 1, 1, 2, 0.4, 0.3, right, 2, 0.3, 0.4, 0.6, 0.7, 0.5239637999329716, 0, , , 0.000000, 1.000000, 2.000000,3.000000,1.000000,6.000000,0.500000,1.000000
50, test, 1, probe, 3, 3, 1, 3, 1, 0.6, 0.3, left, 1, 0.3, 0.4, 0.6, 0.7, 0.8234372001606971, 0, 95.76971435546875, 3.799600600032136, 0.000000, 1.000000, 3.000000,3.000000,1.000000,6.000000,0.500000,1.000000
50, test, 1, no_probe, 4, 2, 4, 2, 4, 0.4, 0.7, left, 1, 0.3, 0.4, 0.6, 0.7, 0.5912188999354839, 1, , , 1.000000, 2.000000, 1.000000,3.000000,1.000000,6.000000,0.500000,1.000000
50, test, 1, no_probe, 5, 1, 4, 4, 1, 0.3, 0.7, right, 2, 0.3, 0.4, 0.6, 0.7, 0.5488785000052303, 0, , , 1.000000, 2.000000, 2.000000,3.000000,1.000000,6.000000,0.500000,1.000000
50, test, 1, probe, 6, 2, 4, 4, 2, 0.4, 0.7, right, 2, 0.3, 0.4, 0.6, 0.7, 0.7124431000556797, 0, 95.01895141601562, 2.9166514999233186, 1.000000, 2.000000, 3.000000,3.000000,1.000000,6.000000,0.500000,1.000000
50, test, 1, no_probe, 7, 2, 3, 3, 2, 0.4, 0.6, right, 2, 0.3, 0.4, 0.6, 0.7, 0.6746195000596344, 0, , , 1.000000, 2.000000, 1.000000,2.000000,1.000000,6.000000,0.500000,1.000000
50, test, 1, probe, 8, 4, 2, 2, 4, 0.7, 0.4, right, 2, 0.3, 0.4, 0.6, 0.7, 0.598291200120002, 0, 96.44863891601562, 2.883283599978313, 1.000000, 2.000000, 2.000000,2.000000,1.000000,6.000000,0.500000,1.000000
50, test, 1, no_probe, 9, 2, 4, 4, 2, 0.4, 0.7, right, 2, 0.3, 0.4, 0.6, 0.7, 0.630955999949947, 0, , , 1.000000, 2.000000, 1.000000,2.000000,1.000000,6.000000,0.500000,1.000000
50, test, 1, probe, 10, 4, 3, 3, 4, 0.7, 0.6, right, 2, 0.3, 0.4, 0.6, 0.7, 0.5222550998441875, 0, 93.83474731445312, 2.5332353999838233, 1.000000, 2.000000, 2.000000,2.000000,1.000000,6.000000,0.500000,1.000000
50, test, 1, no_probe, 11, 4, 3, 3, 4, 0.7, 0.6, right, 2, 0.3, 0.4, 0.6, 0.7, 0.6615088998805732, 1, , , 2.000000, 3.000000, 1.000000,3.000000,1.000000,6.000000,0.500000,1.000000
50, test, 1, no_probe, 12, 4, 1, 1, 4, 0.7, 0.3, right, 2, 0.3, 0.4, 0.6, 0.7, 0.6120395998004824, 1, , , 3.000000, 4.000000, 2.000000,3.000000,1.000000,6.000000,0.500000,1.000000
50, test, 1, probe, 13, 1, 2, 2, 1, 0.3, 0.4, right, 2, 0.3, 0.4, 0.6, 0.7, 0.6997652999125421, 0, 96.46115112304688, 2.6666469001211226, 3.000000, 4.000000, 3.000000,3.000000,1.000000,6.000000,0.500000,1.000000
50, test, 1, no_probe, 14, 1, 2, 1, 2, 0.3, 0.4, left, 1, 0.3, 0.4, 0.6, 0.7, 0.9218602001201361, 1, , , 4.000000, 5.000000, 1.000000,2.000000,1.000000,6.000000,0.500000,1.000000
50, test, 1, probe, 15, 3, 2, 2, 3, 0.6, 0.4, right, 2, 0.3, 0.4, 0.6, 0.7, 0.9063136000186205, 1, 95.59832763671875, 2.499964600196108, 5.000000, 6.000000, 2.000000,2.000000,1.000000,6.000000,0.500000,1.000000
50, test, 1, no_probe, 16, 3, 2, 3, 2, 0.6, 0.4, left, 1, 0.3, 0.4, 0.6, 0.7, 0.7026050998829305, 1, , , 6.000000, 7.000000, 1.000000,2.000000,1.000000,6.000000,0.500000,1.000000
50, test, 1, probe, 17, 1, 2, 1, 2, 0.3, 0.4, left, 1, 0.3, 0.4, 0.6, 0.7, 0.5804226000327617, 0, 94.42031860351562, 2.8832978000864387, 6.000000, 7.000000, 2.000000,2.000000,1.000000,6.000000,0.500000,1.000000
50, test, 1, no_probe, 18, 1, 2, 2, 1, 0.3, 0.4, right, 2, 0.3, 0.4, 0.6, 0.7, 1.069100100081414, 0, , , 6.000000, 7.000000, 1.000000,3.000000,1.000000,6.000000,0.500000,1.000000
50, test, 1, no_probe, 19, 4, 2, 4, 2, 0.7, 0.4, left, 1, 0.3, 0.4, 0.6, 0.7, 0.9836636001709849, 1, , , 7.000000, 8.000000, 2.000000,3.000000,1.000000,6.000000,0.500000,1.000000
50, test, 1, probe, 20, 4, 3, 3, 4, 0.7, 0.6, right, 2, 0.3, 0.4, 0.6, 0.7, 0.697868200019002, 1, 96.06719970703125, 2.3166241999715567, 8.000000, 9.000000, 3.000000,3.000000,1.000000,6.000000,0.500000,1.000000
50, test, 1, no_probe, 21, 4, 3, 3, 4, 0.7, 0.6, right, 2, 0.3, 0.4, 0.6, 0.7, 0.5902706000488251, 1, , , 9.000000, 10.000000, 1.000000,2.000000,1.000000,6.000000,0.500000,1.000000
50, test, 1, probe, 22, 3, 1, 3, 1, 0.6, 0.3, left, 1, 0.3, 0.4, 0.6, 0.7, 0.9439391999039799, 1, 95.08038330078125, 2.5165997999720275, 10.000000, 11.000000, 2.000000,2.000000,1.000000,6.000000,0.500000,1.000000
50, test, 1, no_probe, 23, 2, 1, 2, 1, 0.4, 0.3, left, 1, 0.3, 0.4, 0.6, 0.7, 1.345248900121078, 0, , , 10.000000, 11.000000, 1.000000,3.000000,1.000000,6.000000,0.500000,1.000000
50, test, 1, no_probe, 24, 3, 1, 1, 3, 0.6, 0.3, right, 2, 0.3, 0.4, 0.6, 0.7, 0.9281655999366194, 0, , , 10.000000, 11.000000, 2.000000,3.000000,1.000000,6.000000,0.500000,1.000000
50, test, 1, probe, 25, 3, 1, 3, 1, 0.6, 0.3, left, 1, 0.3, 0.4, 0.6, 0.7, 1.1136483999434859, 1, 97.49612426757812, 2.1832828999031335, 11.000000, 12.000000, 3.000000,3.000000,1.000000,6.000000,0.500000,1.000000
50, test, 2, no_probe, 1, 1, 3, 1, 3, 0.3, 0.6, left, 1, 0.3, 0.4, 0.6, 0.7, 0.5063461000099778, 1, , , 1.000000, 13.000000, 1.000000,2.000000,1.000000,6.000000,0.500000,1.000000
50, test, 2, probe, 2, 1, 4, 4, 1, 0.3, 0.7, right, 2, 0.3, 0.4, 0.6, 0.7, 0.5717718999367207, 0, 96.51174926757812, 3.0333391001913697, 1.000000, 13.000000, 2.000000,2.000000,1.000000,6.000000,0.500000,1.000000
50, test, 2, no_probe, 3, 4, 2, 2, 4, 0.7, 0.4, right, 2, 0.3, 0.4, 0.6, 0.7, 0.6881297000218183, 1, , , 2.000000, 14.000000, 1.000000,2.000000,1.000000,6.000000,0.500000,1.000000
50, test, 2, probe, 4, 2, 3, 3, 2, 0.4, 0.6, right, 2, 0.3, 0.4, 0.6, 0.7, 0.8343020998872817, 1, 99.53353881835938, 2.4666252001188695, 3.000000, 15.000000, 2.000000,2.000000,1.000000,6.000000,0.500000,1.000000
50, test, 2, no_probe, 5, 4, 3, 3, 4, 0.7, 0.6, right, 2, 0.3, 0.4, 0.6, 0.7, 0.7134755000006407, 1, , , 4.000000, 16.000000, 1.000000,2.000000,1.000000,6.000000,0.500000,1.000000
50, test, 2, probe, 6, 4, 3, 3, 4, 0.7, 0.6, right, 2, 0.3, 0.4, 0.6, 0.7, 0.499100600136444, 1, 92.30889892578125, 1.9833146999590099, 5.000000, 17.000000, 2.000000,2.000000,1.000000,6.000000,0.500000,1.000000
50, test, 2, no_probe, 7, 2, 3, 3, 2, 0.4, 0.6, right, 2, 0.3, 0.4, 0.6, 0.7, 0.8863831998314708, 1, , , 6.000000, 18.000000, 1.000000,3.000000,1.000000,6.000000,0.500000,1.000000
50, test, 2, no_probe, 8, 1, 2, 1, 2, 0.3, 0.4, left, 1, 0.3, 0.4, 0.6, 0.7, 0.9058732001576573, 0, , , 6.000000, 18.000000, 2.000000,3.000000,1.000000,6.000000,0.500000,1.000000
50, test, 2, probe, 9, 4, 3, 3, 4, 0.7, 0.6, right, 2, 0.3, 0.4, 0.6, 0.7, 0.6177208998706192, 1, 95.43954467773438, 1.7166174000594765, 7.000000, 19.000000, 3.000000,3.000000,1.000000,6.000000,0.500000,1.000000
50, test, 2, no_probe, 10, 4, 1, 4, 1, 0.7, 0.3, left, 1, 0.3, 0.4, 0.6, 0.7, 0.6923968999180943, 1, , , 8.000000, 20.000000, 1.000000,3.000000,1.000000,6.000000,0.500000,1.000000
50, test, 2, no_probe, 11, 4, 2, 4, 2, 0.7, 0.4, left, 1, 0.3, 0.4, 0.6, 0.7, 0.7919227997772396, 0, , , 8.000000, 20.000000, 2.000000,3.000000,1.000000,6.000000,0.500000,1.000000
50, test, 2, probe, 12, 2, 3, 2, 3, 0.4, 0.6, left, 1, 0.3, 0.4, 0.6, 0.7, 0.638111500069499, 0, 94.80990600585938, 2.5499551999382675, 8.000000, 20.000000, 3.000000,3.000000,1.000000,6.000000,0.500000,1.000000
50, test, 2, no_probe, 13, 2, 3, 2, 3, 0.4, 0.6, left, 1, 0.3, 0.4, 0.6, 0.7, 0.6418598000891507, 1, , , 9.000000, 21.000000, 1.000000,3.000000,1.000000,6.000000,0.500000,1.000000
50, test, 2, no_probe, 14, 4, 1, 1, 4, 0.7, 0.3, right, 2, 0.3, 0.4, 0.6, 0.7, 0.5371676001232117, 0, , , 9.000000, 21.000000, 2.000000,3.000000,1.000000,6.000000,0.500000,1.000000
50, test, 2, probe, 15, 4, 3, 4, 3, 0.7, 0.6, left, 1, 0.3, 0.4, 0.6, 0.7, 0.5147102000191808, 1, 95.70977783203125, 2.0666546998545527, 10.000000, 22.000000, 3.000000,3.000000,1.000000,6.000000,0.500000,1.000000
50, test, 2, no_probe, 16, 1, 2, 1, 2, 0.3, 0.4, left, 1, 0.3, 0.4, 0.6, 0.7, 0.8539736000820994, 0, , , 10.000000, 22.000000, 1.000000,2.000000,1.000000,6.000000,0.500000,1.000000
50, test, 2, probe, 17, 2, 3, 2, 3, 0.4, 0.6, left, 1, 0.3, 0.4, 0.6, 0.7, 0.7812667998950928, 1, 91.94204711914062, 2.0833102997858077, 11.000000, 23.000000, 2.000000,2.000000,1.000000,6.000000,0.500000,1.000000
50, test, 2, no_probe, 18, 1, 2, 2, 1, 0.3, 0.4, right, 2, 0.3, 0.4, 0.6, 0.7, 0.8590539998840541, 1, , , 12.000000, 24.000000, 1.000000,3.000000,1.000000,6.000000,0.500000,1.000000
50, test, 2, no_probe, 19, 4, 1, 4, 1, 0.7, 0.3, left, 1, 0.3, 0.4, 0.6, 0.7, 0.4627559999935329, 1, , , 13.000000, 25.000000, 2.000000,3.000000,1.000000,6.000000,0.500000,1.000000
50, test, 2, probe, 20, 1, 3, 1, 3, 0.3, 0.6, left, 1, 0.3, 0.4, 0.6, 0.7, 0.6145835998468101, 0, 92.64938354492188, 1.9999770999420434, 13.000000, 25.000000, 3.000000,3.000000,1.000000,6.000000,0.500000,1.000000
50, test, 2, no_probe, 21, 4, 1, 1, 4, 0.7, 0.3, right, 2, 0.3, 0.4, 0.6, 0.7, 0.565550799947232, 1, , , 14.000000, 26.000000, 1.000000,3.000000,1.000000,6.000000,0.500000,1.000000
50, test, 2, no_probe, 22, 1, 3, 3, 1, 0.3, 0.6, right, 2, 0.3, 0.4, 0.6, 0.7, 0.7766561000607908, 1, , , 15.000000, 27.000000, 2.000000,3.000000,1.000000,6.000000,0.500000,1.000000
50, test, 2, probe, 23, 3, 2, 3, 2, 0.6, 0.4, left, 1, 0.3, 0.4, 0.6, 0.7, 0.6431403998285532, 1, 94.46298217773438, 2.3999797999858856, 16.000000, 28.000000, 3.000000,3.000000,1.000000,6.000000,0.500000,1.000000
50, test, 2, no_probe, 24, 4, 2, 2, 4, 0.7, 0.4, right, 2, 0.3, 0.4, 0.6, 0.7, 0.8129110001027584, 1, , , 17.000000, 29.000000, 1.000000,2.000000,1.000000,6.000000,0.500000,1.000000
50, test, 2, probe, 25, 4, 1, 1, 4, 0.7, 0.3, right, 2, 0.3, 0.4, 0.6, 0.7, 0.5368613998871297, 1, 99.99972534179688, 1.683303500059992, 18.000000, 30.000000, 2.000000,2.000000,1.000000,6.000000,0.500000,1.000000
50, test, 3, no_probe, 1, 2, 4, 2, 4, 0.4, 0.7, left, 1, 0.3, 0.4, 0.6, 0.7, 0.566899900091812, 0, , , 0.000000, 30.000000, 1.000000,2.000000,1.000000,6.000000,0.500000,1.000000
50, test, 3, probe, 2, 2, 1, 2, 1, 0.4, 0.3, left, 1, 0.3, 0.4, 0.6, 0.7, 0.7774498001672328, 1, 99.99969482421875, 1.9000049999449402, 1.000000, 31.000000, 2.000000,2.000000,1.000000,6.000000,0.500000,1.000000
50, test, 3, no_probe, 3, 2, 1, 2, 1, 0.4, 0.3, left, 1, 0.3, 0.4, 0.6, 0.7, 0.9867392999585718, 1, , , 2.000000, 32.000000, 1.000000,3.000000,1.000000,6.000000,0.500000,1.000000
50, test, 3, no_probe, 4, 2, 1, 1, 2, 0.4, 0.3, right, 2, 0.3, 0.4, 0.6, 0.7, 0.6904241000302136, 0, , , 2.000000, 32.000000, 2.000000,3.000000,1.000000,6.000000,0.500000,1.000000
50, test, 3, probe, 5, 3, 2, 2, 3, 0.6, 0.4, right, 2, 0.3, 0.4, 0.6, 0.7, 0.7200452999677509, 0, 96.10238647460938, 2.9166216999292374, 2.000000, 32.000000, 3.000000,3.000000,1.000000,6.000000,0.500000,1.000000
50, test, 3, no_probe, 6, 2, 3, 3, 2, 0.4, 0.6, right, 2, 0.3, 0.4, 0.6, 0.7, 0.8095567000564188, 0, , , 2.000000, 32.000000, 1.000000,3.000000,1.000000,6.000000,0.500000,1.000000
50, test, 3, no_probe, 7, 4, 2, 4, 2, 0.7, 0.4, left, 1, 0.3, 0.4, 0.6, 0.7, 0.7123622000217438, 1, , , 3.000000, 33.000000, 2.000000,3.000000,1.000000,6.000000,0.500000,1.000000
50, test, 3, probe, 8, 3, 2, 2, 3, 0.6, 0.4, right, 2, 0.3, 0.4, 0.6, 0.7, 0.6514668001327664, 0, 92.96835327148438, 1.6497435998171568, 3.000000, 33.000000, 3.000000,3.000000,1.000000,6.000000,0.500000,1.000000
50, test, 3, no_probe, 9, 4, 1, 4, 1, 0.7, 0.3, left, 1, 0.3, 0.4, 0.6, 0.7, 0.9528659000061452, 1, , , 4.000000, 34.000000, 1.000000,3.000000,1.000000,6.000000,0.500000,1.000000
50, test, 3, no_probe, 10, 4, 3, 3, 4, 0.7, 0.6, right, 2, 0.3, 0.4, 0.6, 0.7, 0.519473799970001, 1, , , 5.000000, 35.000000, 2.000000,3.000000,1.000000,6.000000,0.500000,1.000000
50, test, 3, probe, 11, 2, 1, 2, 1, 0.4, 0.3, left, 1, 0.3, 0.4, 0.6, 0.7, 0.6686857000458986, 1, 99.9996337890625, 2.2666460999753326, 6.000000, 36.000000, 3.000000,3.000000,1.000000,6.000000,0.500000,1.000000
50, test, 3, no_probe, 12, 4, 2, 4, 2, 0.7, 0.4, left, 1, 0.3, 0.4, 0.6, 0.7, 0.97840670007281, 1, , , 7.000000, 37.000000, 1.000000,2.000000,1.000000,6.000000,0.500000,1.000000
50, test, 3, probe, 13, 4, 3, 4, 3, 0.7, 0.6, left, 1, 0.3, 0.4, 0.6, 0.7, 0.7450199001468718, 0, 99.99984741210938, 1.7833279999904335, 7.000000, 37.000000, 2.000000,2.000000,1.000000,6.000000,0.500000,1.000000
50, test, 3, no_probe, 14, 2, 1, 2, 1, 0.4, 0.3, left, 1, 0.3, 0.4, 0.6, 0.7, 0.7923085999209434, 1, , , 8.000000, 38.000000, 1.000000,2.000000,1.000000,6.000000,0.500000,1.000000
50, test, 3, probe, 15, 3, 2, 2, 3, 0.6, 0.4, right, 2, 0.3, 0.4, 0.6, 0.7, 0.5699463000055403, 0, 99.99960327148438, 2.0332770000677556, 8.000000, 38.000000, 2.000000,2.000000,1.000000,6.000000,0.500000,1.000000
50, test, 3, no_probe, 16, 2, 1, 2, 1, 0.4, 0.3, left, 1, 0.3, 0.4, 0.6, 0.7, 0.7347458999138325, 0, , , 8.000000, 38.000000, 1.000000,2.000000,1.000000,6.000000,0.500000,1.000000
50, test, 3, probe, 17, 4, 3, 4, 3, 0.7, 0.6, left, 1, 0.3, 0.4, 0.6, 0.7, 0.5108330000657588, 1, 99.99972534179688, 1.7666611999738961, 9.000000, 39.000000, 2.000000,2.000000,1.000000,6.000000,0.500000,1.000000
50, test, 3, no_probe, 18, 4, 1, 4, 1, 0.7, 0.3, left, 1, 0.3, 0.4, 0.6, 0.7, 0.5875296001322567, 1, , , 10.000000, 40.000000, 1.000000,2.000000,1.000000,6.000000,0.500000,1.000000
50, test, 3, probe, 19, 4, 1, 4, 1, 0.7, 0.3, left, 1, 0.3, 0.4, 0.6, 0.7, 0.6454348999541253, 1, 99.99972534179688, 1.7833237000741065, 11.000000, 41.000000, 2.000000,2.000000,1.000000,6.000000,0.500000,1.000000
50, test, 3, no_probe, 20, 3, 1, 1, 3, 0.6, 0.3, right, 2, 0.3, 0.4, 0.6, 0.7, 0.6235692999325693, 1, , , 12.000000, 42.000000, 1.000000,3.000000,1.000000,6.000000,0.500000,1.000000
50, test, 3, no_probe, 21, 3, 2, 3, 2, 0.6, 0.4, left, 1, 0.3, 0.4, 0.6, 0.7, 0.6042912001721561, 1, , , 13.000000, 43.000000, 2.000000,3.000000,1.000000,6.000000,0.500000,1.000000
50, test, 3, probe, 22, 3, 1, 3, 1, 0.6, 0.3, left, 1, 0.3, 0.4, 0.6, 0.7, 0.659102400066331, 1, 99.999755859375, 1.6999622001312673, 14.000000, 44.000000, 3.000000,3.000000,1.000000,6.000000,0.500000,1.000000
50, test, 3, no_probe, 23, 4, 2, 2, 4, 0.7, 0.4, right, 2, 0.3, 0.4, 0.6, 0.7, 0.7726594000123441, 0, , , 14.000000, 44.000000, 1.000000,2.000000,1.000000,6.000000,0.500000,1.000000
50, test, 3, probe, 24, 4, 2, 4, 2, 0.7, 0.4, left, 1, 0.3, 0.4, 0.6, 0.7, 0.6995186000131071, 1, 99.99969482421875, 1.76663690013811, 15.000000, 45.000000, 2.000000,2.000000,1.000000,6.000000,0.500000,1.000000
50, test, 3, no_probe, 25, 4, 2, 4, 2, 0.7, 0.4, left, 1, 0.3, 0.4, 0.6, 0.7, 0.4640441001392901, 1, , , 16.000000, 46.000000, 1.000000,3.000000,1.000000,6.000000,0.500000,1.000000
50, test, 4, no_probe, 1, 3, 2, 3, 2, 0.6, 0.4, left, 1, 0.3, 0.4, 0.6, 0.7, 0.5326873001176864, 1, , , 1.000000, 47.000000, 1.000000,3.000000,1.000000,6.000000,0.500000,1.000000
50, test, 4, no_probe, 2, 1, 2, 2, 1, 0.3, 0.4, right, 2, 0.3, 0.4, 0.6, 0.7, 0.7418697001412511, 0, , , 1.000000, 47.000000, 2.000000,3.000000,1.000000,6.000000,0.500000,1.000000
50, test, 4, probe, 3, 1, 2, 2, 1, 0.3, 0.4, right, 2, 0.3, 0.4, 0.6, 0.7, 0.6938664000481367, 0, 99.99978637695312, 1.782963400008157, 1.000000, 47.000000, 3.000000,3.000000,1.000000,6.000000,0.500000,1.000000
50, test, 4, no_probe, 4, 4, 1, 4, 1, 0.7, 0.3, left, 1, 0.3, 0.4, 0.6, 0.7, 0.9150030000600964, 1, , , 2.000000, 48.000000, 1.000000,2.000000,1.000000,6.000000,0.500000,1.000000
50, test, 4, probe, 5, 4, 1, 4, 1, 0.7, 0.3, left, 1, 0.3, 0.4, 0.6, 0.7, 0.702759400010109, 1, 99.99951171875, 1.8832940000575036, 3.000000, 49.000000, 2.000000,2.000000,1.000000,6.000000,0.500000,1.000000
50, test, 4, no_probe, 6, 3, 1, 3, 1, 0.6, 0.3, left, 1, 0.3, 0.4, 0.6, 0.7, 0.7673750000540167, 1, , , 4.000000, 50.000000, 1.000000,2.000000,1.000000,6.000000,0.500000,1.000000
50, test, 4, probe, 7, 4, 2, 2, 4, 0.7, 0.4, right, 2, 0.3, 0.4, 0.6, 0.7, 0.8780996999703348, 1, 99.99880981445312, 2.349988899892196, 5.000000, 51.000000, 2.000000,2.000000,1.000000,6.000000,0.500000,1.000000
50, test, 4, no_probe, 8, 4, 2, 4, 2, 0.7, 0.4, left, 1, 0.3, 0.4, 0.6, 0.7, 0.9033041999209672, 1, , , 6.000000, 52.000000, 1.000000,3.000000,1.000000,6.000000,0.500000,1.000000
50, test, 4, no_probe, 9, 3, 1, 1, 3, 0.6, 0.3, right, 2, 0.3, 0.4, 0.6, 0.7, 0.45961689995601773, 1, , , 7.000000, 53.000000, 2.000000,3.000000,1.000000,6.000000,0.500000,1.000000
50, test, 4, probe, 10, 3, 1, 3, 1, 0.6, 0.3, left, 1, 0.3, 0.4, 0.6, 0.7, 0.5585228998679668, 0, 99.99969482421875, 1.9166317998897284, 7.000000, 53.000000, 3.000000,3.000000,1.000000,6.000000,0.500000,1.000000
50, test, 4, no_probe, 11, 2, 1, 2, 1, 0.4, 0.3, left, 1, 0.3, 0.4, 0.6, 0.7, 0.9410520000383258, 0, , , 7.000000, 53.000000, 1.000000,2.000000,1.000000,6.000000,0.500000,1.000000
50, test, 4, probe, 12, 4, 1, 4, 1, 0.7, 0.3, left, 1, 0.3, 0.4, 0.6, 0.7, 0.5651650000363588, 1, 99.999755859375, 2.0499746999703348, 8.000000, 54.000000, 2.000000,2.000000,1.000000,6.000000,0.500000,1.000000
50, test, 4, no_probe, 13, 3, 2, 3, 2, 0.6, 0.4, left, 1, 0.3, 0.4, 0.6, 0.7, 0.5470994000788778, 1, , , 9.000000, 55.000000, 1.000000,2.000000,1.000000,6.000000,0.500000,1.000000
50, test, 4, probe, 14, 3, 1, 1, 3, 0.6, 0.3, right, 2, 0.3, 0.4, 0.6, 0.7, 0.4703114000149071, 1, 99.999755859375, 1.7999603000935167, 10.000000, 56.000000, 2.000000,2.000000,1.000000,6.000000,0.500000,1.000000
50, test, 4, no_probe, 15, 1, 2, 1, 2, 0.3, 0.4, left, 1, 0.3, 0.4, 0.6, 0.7, 1.1921924001071602, 1, , , 11.000000, 57.000000, 1.000000,3.000000,1.000000,6.000000,0.500000,1.000000
50, test, 4, no_probe, 16, 4, 2, 4, 2, 0.7, 0.4, left, 1, 0.3, 0.4, 0.6, 0.7, 0.6755421000998467, 1, , , 12.000000, 58.000000, 2.000000,3.000000,1.000000,6.000000,0.500000,1.000000
50, test, 4, probe, 17, 4, 1, 1, 4, 0.7, 0.3, right, 2, 0.3, 0.4, 0.6, 0.7, 0.8902811000589281, 1, 99.99966430664062, 1.6333192000165582, 13.000000, 59.000000, 3.000000,3.000000,1.000000,6.000000,0.500000,1.000000
50, test, 4, no_probe, 18, 3, 1, 1, 3, 0.6, 0.3, right, 2, 0.3, 0.4, 0.6, 0.7, 0.4920187001116574, 1, , , 14.000000, 60.000000, 1.000000,2.000000,1.000000,6.000000,0.500000,1.000000
50, test, 4, probe, 19, 3, 4, 4, 3, 0.6, 0.7, right, 2, 0.3, 0.4, 0.6, 0.7, 0.754644300090149, 1, 99.99966430664062, 1.8333147999364883, 15.000000, 61.000000, 2.000000,2.000000,1.000000,6.000000,0.500000,1.000000
50, test, 4, no_probe, 20, 3, 2, 3, 2, 0.6, 0.4, left, 1, 0.3, 0.4, 0.6, 0.7, 0.655468099983409, 1, , , 16.000000, 62.000000, 1.000000,2.000000,1.000000,6.000000,0.500000,1.000000
50, test, 4, probe, 21, 3, 2, 2, 3, 0.6, 0.4, right, 2, 0.3, 0.4, 0.6, 0.7, 0.4792802999727428, 1, 99.99969482421875, 1.8666270000394434, 17.000000, 63.000000, 2.000000,2.000000,1.000000,6.000000,0.500000,1.000000
50, test, 4, no_probe, 22, 3, 4, 4, 3, 0.6, 0.7, right, 2, 0.3, 0.4, 0.6, 0.7, 0.5169384002219886, 0, , , 17.000000, 63.000000, 1.000000,2.000000,1.000000,6.000000,0.500000,1.000000
50, test, 4, probe, 23, 3, 4, 3, 4, 0.6, 0.7, left, 1, 0.3, 0.4, 0.6, 0.7, 1.3105918001383543, 1, 99.99951171875, 1.8999625002034009, 18.000000, 64.000000, 2.000000,2.000000,1.000000,6.000000,0.500000,1.000000
50, test, 4, no_probe, 24, 4, 1, 1, 4, 0.7, 0.3, right, 2, 0.3, 0.4, 0.6, 0.7, 0.7783673999365419, 1, , , 19.000000, 65.000000, 1.000000,2.000000,1.000000,6.000000,0.500000,1.000000
50, test, 4, probe, 25, 3, 2, 3, 2, 0.6, 0.4, left, 1, 0.3, 0.4, 0.6, 0.7, 0.5110406000167131, 1, 99.99966430664062, 1.7499724999070168, 20.000000, 66.000000, 2.000000,2.000000,1.000000,6.000000,0.500000,1.000000
50, test, 5, no_probe, 1, 3, 4, 4, 3, 0.6, 0.7, right, 2, 0.3, 0.4, 0.6, 0.7, 0.6032531999517232, 0, , , 0.000000, 66.000000, 1.000000,2.000000,1.000000,6.000000,0.500000,1.000000
50, test, 5, probe, 2, 4, 2, 4, 2, 0.7, 0.4, left, 1, 0.3, 0.4, 0.6, 0.7, 0.9161023001652211, 1, 99.9930419921875, 5.583276099991053, 1.000000, 67.000000, 2.000000,2.000000,1.000000,6.000000,0.500000,1.000000
50, test, 5, no_probe, 3, 3, 2, 2, 3, 0.6, 0.4, right, 2, 0.3, 0.4, 0.6, 0.7, 0.9050740001257509, 1, , , 2.000000, 68.000000, 1.000000,3.000000,1.000000,6.000000,0.500000,1.000000
50, test, 5, no_probe, 4, 4, 2, 2, 4, 0.7, 0.4, right, 2, 0.3, 0.4, 0.6, 0.7, 0.9504162000957876, 1, , , 3.000000, 69.000000, 2.000000,3.000000,1.000000,6.000000,0.500000,1.000000
50, test, 5, probe, 5, 1, 4, 1, 4, 0.3, 0.7, left, 1, 0.3, 0.4, 0.6, 0.7, 0.9242823000531644, 1, 99.99722290039062, 3.433277500094846, 4.000000, 70.000000, 3.000000,3.000000,1.000000,6.000000,0.500000,1.000000
50, test, 5, no_probe, 6, 1, 3, 1, 3, 0.3, 0.6, left, 1, 0.3, 0.4, 0.6, 0.7, 0.8101388998329639, 0, , , 4.000000, 70.000000, 1.000000,2.000000,1.000000,6.000000,0.500000,1.000000
50, test, 5, probe, 7, 1, 4, 1, 4, 0.3, 0.7, left, 1, 0.3, 0.4, 0.6, 0.7, 0.7324175999965519, 1, 99.99411010742188, 5.099928200012073, 5.000000, 71.000000, 2.000000,2.000000,1.000000,6.000000,0.500000,1.000000
50, test, 5, no_probe, 8, 1, 4, 4, 1, 0.3, 0.7, right, 2, 0.3, 0.4, 0.6, 0.7, 0.5063744999933988, 0, , , 5.000000, 71.000000, 1.000000,3.000000,1.000000,6.000000,0.500000,1.000000
50, test, 5, no_probe, 9, 1, 3, 3, 1, 0.3, 0.6, right, 2, 0.3, 0.4, 0.6, 0.7, 1.4953997998964041, 0, , , 5.000000, 71.000000, 2.000000,3.000000,1.000000,6.000000,0.500000,1.000000
50, test, 5, probe, 10, 4, 3, 4, 3, 0.7, 0.6, left, 1, 0.3, 0.4, 0.6, 0.7, 0.8386488000396639, 1, 90.642578125, 1.7166359999682754, 6.000000, 72.000000, 3.000000,3.000000,1.000000,6.000000,0.500000,1.000000
50, test, 5, no_probe, 11, 3, 1, 1, 3, 0.6, 0.3, right, 2, 0.3, 0.4, 0.6, 0.7, 0.6761490001808852, 0, , , 6.000000, 72.000000, 1.000000,2.000000,1.000000,6.000000,0.500000,1.000000
50, test, 5, probe, 12, 1, 2, 1, 2, 0.3, 0.4, left, 1, 0.3, 0.4, 0.6, 0.7, 0.6698837000876665, 0, 99.99884033203125, 2.2999425001908094, 6.000000, 72.000000, 2.000000,2.000000,1.000000,6.000000,0.500000,1.000000
50, test, 5, no_probe, 13, 4, 2, 4, 2, 0.7, 0.4, left, 1, 0.3, 0.4, 0.6, 0.7, 0.8361217000056058, 1, , , 7.000000, 73.000000, 1.000000,3.000000,1.000000,6.000000,0.500000,1.000000
50, test, 5, no_probe, 14, 3, 1, 3, 1, 0.6, 0.3, left, 1, 0.3, 0.4, 0.6, 0.7, 0.5357580999843776, 0, , , 7.000000, 73.000000, 2.000000,3.000000,1.000000,6.000000,0.500000,1.000000
50, test, 5, probe, 15, 4, 3, 4, 3, 0.7, 0.6, left, 1, 0.3, 0.4, 0.6, 0.7, 0.9964645002037287, 1, 99.99972534179688, 1.5999759000260383, 8.000000, 74.000000, 3.000000,3.000000,1.000000,6.000000,0.500000,1.000000
50, test, 5, no_probe, 16, 4, 3, 3, 4, 0.7, 0.6, right, 2, 0.3, 0.4, 0.6, 0.7, 0.6315033999271691, 1, , , 9.000000, 75.000000, 1.000000,3.000000,1.000000,6.000000,0.500000,1.000000
50, test, 5, no_probe, 17, 4, 2, 4, 2, 0.7, 0.4, left, 1, 0.3, 0.4, 0.6, 0.7, 0.7847253000363708, 1, , , 10.000000, 76.000000, 2.000000,3.000000,1.000000,6.000000,0.500000,1.000000
50, test, 5, probe, 18, 4, 1, 4, 1, 0.7, 0.3, left, 1, 0.3, 0.4, 0.6, 0.7, 0.5452014999464154, 1, 99.99969482421875, 1.6999659000430256, 11.000000, 77.000000, 3.000000,3.000000,1.000000,6.000000,0.500000,1.000000
50, test, 5, no_probe, 19, 4, 3, 3, 4, 0.7, 0.6, right, 2, 0.3, 0.4, 0.6, 0.7, 0.5834510000422597, 1, , , 12.000000, 78.000000, 1.000000,2.000000,1.000000,6.000000,0.500000,1.000000
50, test, 5, probe, 20, 2, 1, 2, 1, 0.4, 0.3, left, 1, 0.3, 0.4, 0.6, 0.7, 1.2818672000430524, 0, 99.99972534179688, 1.8166755998972803, 12.000000, 78.000000, 2.000000,2.000000,1.000000,6.000000,0.500000,1.000000
50, test, 5, no_probe, 21, 4, 2, 2, 4, 0.7, 0.4, right, 2, 0.3, 0.4, 0.6, 0.7, 0.6309969997964799, 1, , , 13.000000, 79.000000, 1.000000,2.000000,1.000000,6.000000,0.500000,1.000000
50, test, 5, probe, 22, 4, 1, 4, 1, 0.7, 0.3, left, 1, 0.3, 0.4, 0.6, 0.7, 0.6255173000972718, 1, 99.999755859375, 1.6499268000479788, 14.000000, 80.000000, 2.000000,2.000000,1.000000,6.000000,0.500000,1.000000
50, test, 5, no_probe, 23, 1, 2, 2, 1, 0.3, 0.4, right, 2, 0.3, 0.4, 0.6, 0.7, 1.1193444998934865, 0, , , 14.000000, 80.000000, 1.000000,2.000000,1.000000,6.000000,0.500000,1.000000
50, test, 5, probe, 24, 4, 2, 2, 4, 0.7, 0.4, right, 2, 0.3, 0.4, 0.6, 0.7, 0.6486835000105202, 1, 99.99966430664062, 1.799978099996224, 15.000000, 81.000000, 2.000000,2.000000,1.000000,6.000000,0.500000,1.000000
50, test, 5, no_probe, 25, 1, 2, 2, 1, 0.3, 0.4, right, 2, 0.3, 0.4, 0.6, 0.7, 0.9669749001041055, 0, , , 15.000000, 81.000000, 1.000000,2.000000,1.000000,6.000000,0.500000,1.000000
50, test, 6, no_probe, 1, 1, 3, 1, 3, 0.3, 0.6, left, 1, 0.3, 0.4, 0.6, 0.7, 0.6930410999339074, 0, , , 0.000000, 81.000000, 1.000000,2.000000,1.000000,6.000000,0.500000,1.000000
50, test, 6, probe, 2, 3, 2, 3, 2, 0.6, 0.4, left, 1, 0.3, 0.4, 0.6, 0.7, 0.8701167998369783, 1, 99.99844360351562, 2.533280499977991, 1.000000, 82.000000, 2.000000,2.000000,1.000000,6.000000,0.500000,1.000000
50, test, 6, no_probe, 3, 3, 2, 3, 2, 0.6, 0.4, left, 1, 0.3, 0.4, 0.6, 0.7, 0.7894646001514047, 1, , , 2.000000, 83.000000, 1.000000,3.000000,1.000000,6.000000,0.500000,1.000000
50, test, 6, no_probe, 4, 1, 4, 1, 4, 0.3, 0.7, left, 1, 0.3, 0.4, 0.6, 0.7, 0.7683309998828918, 0, , , 2.000000, 83.000000, 2.000000,3.000000,1.000000,6.000000,0.500000,1.000000
50, test, 6, probe, 5, 2, 4, 2, 4, 0.4, 0.7, left, 1, 0.3, 0.4, 0.6, 0.7, 0.867575200041756, 0, 99.9996337890625, 1.816635699942708, 2.000000, 83.000000, 3.000000,3.000000,1.000000,6.000000,0.500000,1.000000
50, test, 6, no_probe, 6, 4, 2, 4, 2, 0.7, 0.4, left, 1, 0.3, 0.4, 0.6, 0.7, 0.8473910000175238, 1, , , 3.000000, 84.000000, 1.000000,3.000000,1.000000,6.000000,0.500000,1.000000
50, test, 6, no_probe, 7, 3, 1, 3, 1, 0.6, 0.3, left, 1, 0.3, 0.4, 0.6, 0.7, 0.682743800105527, 1, , , 4.000000, 85.000000, 2.000000,3.000000,1.000000,6.000000,0.500000,1.000000
50, test, 6, probe, 8, 4, 1, 1, 4, 0.7, 0.3, right, 2, 0.3, 0.4, 0.6, 0.7, 0.6283123998437077, 0, 99.99969482421875, 1.9999746999237686, 4.000000, 85.000000, 3.000000,3.000000,1.000000,6.000000,0.500000,1.000000
50, test, 6, no_probe, 9, 4, 1, 4, 1, 0.7, 0.3, left, 1, 0.3, 0.4, 0.6, 0.7, 0.780620199861005, 1, , , 5.000000, 86.000000, 1.000000,2.000000,1.000000,6.000000,0.500000,1.000000
50, test, 6, probe, 10, 3, 2, 3, 2, 0.6, 0.4, left, 1, 0.3, 0.4, 0.6, 0.7, 0.6210610000416636, 1, 99.99978637695312, 1.7666529000271112, 6.000000, 87.000000, 2.000000,2.000000,1.000000,6.000000,0.500000,1.000000
50, test, 6, no_probe, 11, 3, 1, 1, 3, 0.6, 0.3, right, 2, 0.3, 0.4, 0.6, 0.7, 0.593759800074622, 0, , , 6.000000, 87.000000, 1.000000,2.000000,1.000000,6.000000,0.500000,1.000000
50, test, 6, probe, 12, 1, 2, 1, 2, 0.3, 0.4, left, 1, 0.3, 0.4, 0.6, 0.7, 1.4682138001080602, 1, 99.99969482421875, 1.7333356998860836, 7.000000, 88.000000, 2.000000,2.000000,1.000000,6.000000,0.500000,1.000000
50, test, 6, no_probe, 13, 3, 1, 1, 3, 0.6, 0.3, right, 2, 0.3, 0.4, 0.6, 0.7, 0.6360607999376953, 0, , , 7.000000, 88.000000, 1.000000,2.000000,1.000000,6.000000,0.500000,1.000000
50, test, 6, probe, 14, 4, 1, 1, 4, 0.7, 0.3, right, 2, 0.3, 0.4, 0.6, 0.7, 1.060617599869147, 1, 99.99954223632812, 1.8500047998968512, 8.000000, 89.000000, 2.000000,2.000000,1.000000,6.000000,0.500000,1.000000
50, test, 6, no_probe, 15, 3, 2, 3, 2, 0.6, 0.4, left, 1, 0.3, 0.4, 0.6, 0.7, 0.6559534999541938, 0, , , 8.000000, 89.000000, 1.000000,3.000000,1.000000,6.000000,0.500000,1.000000
50, test, 6, no_probe, 16, 3, 2, 2, 3, 0.6, 0.4, right, 2, 0.3, 0.4, 0.6, 0.7, 0.7155402000062168, 0, , , 8.000000, 89.000000, 2.000000,3.000000,1.000000,6.000000,0.500000,1.000000
50, test, 6, probe, 17, 1, 4, 4, 1, 0.3, 0.7, right, 2, 0.3, 0.4, 0.6, 0.7, 0.8251076000742614, 0, 99.99966430664062, 1.7166366998571903, 8.000000, 89.000000, 3.000000,3.000000,1.000000,6.000000,0.500000,1.000000
50, test, 6, no_probe, 18, 4, 2, 4, 2, 0.7, 0.4, left, 1, 0.3, 0.4, 0.6, 0.7, 0.9195141000673175, 1, , , 9.000000, 90.000000, 1.000000,3.000000,1.000000,6.000000,0.500000,1.000000
50, test, 6, no_probe, 19, 3, 4, 3, 4, 0.6, 0.7, left, 1, 0.3, 0.4, 0.6, 0.7, 0.9602093999274075, 1, , , 10.000000, 91.000000, 2.000000,3.000000,1.000000,6.000000,0.500000,1.000000
50, test, 6, probe, 20, 3, 4, 3, 4, 0.6, 0.7, left, 1, 0.3, 0.4, 0.6, 0.7, 0.6594696999527514, 1, 99.99972534179688, 1.7166301999241114, 11.000000, 92.000000, 3.000000,3.000000,1.000000,6.000000,0.500000,1.000000
50, test, 6, no_probe, 21, 1, 4, 1, 4, 0.3, 0.7, left, 1, 0.3, 0.4, 0.6, 0.7, 0.5162813998758793, 0, , , 11.000000, 92.000000, 1.000000,2.000000,1.000000,6.000000,0.500000,1.000000
50, test, 6, probe, 22, 4, 2, 2, 4, 0.7, 0.4, right, 2, 0.3, 0.4, 0.6, 0.7, 0.6783873999956995, 1, 99.999755859375, 1.7999492001254112, 12.000000, 93.000000, 2.000000,2.000000,1.000000,6.000000,0.500000,1.000000
50, test, 6, no_probe, 23, 3, 1, 1, 3, 0.6, 0.3, right, 2, 0.3, 0.4, 0.6, 0.7, 0.5736643001437187, 0, , , 12.000000, 93.000000, 1.000000,2.000000,1.000000,6.000000,0.500000,1.000000
50, test, 6, probe, 24, 4, 3, 4, 3, 0.7, 0.6, left, 1, 0.3, 0.4, 0.6, 0.7, 0.8205248001031578, 1, 99.99966430664062, 1.4999770999420434, 13.000000, 94.000000, 2.000000,2.000000,1.000000,6.000000,0.500000,1.000000
50, test, 6, no_probe, 25, 3, 4, 3, 4, 0.6, 0.7, left, 1, 0.3, 0.4, 0.6, 0.7, 0.9123627000954002, 1, , , 14.000000, 95.000000, 1.000000,3.000000,1.000000,6.000000,0.500000,1.000000
50, test, 7, no_probe, 1, 1, 2, 2, 1, 0.3, 0.4, right, 2, 0.3, 0.4, 0.6, 0.7, 0.9510238999500871, 0, , , 0.000000, 95.000000, 1.000000,3.000000,1.000000,6.000000,0.500000,1.000000
50, test, 7, no_probe, 2, 2, 4, 2, 4, 0.4, 0.7, left, 1, 0.3, 0.4, 0.6, 0.7, 0.9061159999109805, 1, , , 1.000000, 96.000000, 2.000000,3.000000,1.000000,6.000000,0.500000,1.000000
50, test, 7, probe, 3, 1, 3, 3, 1, 0.3, 0.6, right, 2, 0.3, 0.4, 0.6, 0.7, 0.9241241000127047, 0, 99.99630737304688, 3.59959529992193, 1.000000, 96.000000, 3.000000,3.000000,1.000000,6.000000,0.500000,1.000000
50, test, 7, no_probe, 4, 3, 4, 4, 3, 0.6, 0.7, right, 2, 0.3, 0.4, 0.6, 0.7, 1.1521236998960376, 0, , , 1.000000, 96.000000, 1.000000,2.000000,1.000000,6.000000,0.500000,1.000000
50, test, 7, probe, 5, 2, 1, 1, 2, 0.4, 0.3, right, 2, 0.3, 0.4, 0.6, 0.7, 0.5478898000437766, 0, 87.03817749023438, 2.2499734999146312, 1.000000, 96.000000, 2.000000,2.000000,1.000000,6.000000,0.500000,1.000000
50, test, 7, no_probe, 6, 4, 3, 4, 3, 0.7, 0.6, left, 1, 0.3, 0.4, 0.6, 0.7, 0.847390899900347, 1, , , 2.000000, 97.000000, 1.000000,3.000000,1.000000,6.000000,0.500000,1.000000
50, test, 7, no_probe, 7, 4, 3, 3, 4, 0.7, 0.6, right, 2, 0.3, 0.4, 0.6, 0.7, 0.7736543999053538, 1, , , 3.000000, 98.000000, 2.000000,3.000000,1.000000,6.000000,0.500000,1.000000
50, test, 7, probe, 8, 2, 4, 2, 4, 0.4, 0.7, left, 1, 0.3, 0.4, 0.6, 0.7, 0.546054899925366, 0, 99.99972534179688, 1.5499623999930918, 3.000000, 98.000000, 3.000000,3.000000,1.000000,6.000000,0.500000,1.000000
50, test, 7, no_probe, 9, 2, 3, 2, 3, 0.4, 0.6, left, 1, 0.3, 0.4, 0.6, 0.7, 0.99252640013583, 0, , , 3.000000, 98.000000, 1.000000,2.000000,1.000000,6.000000,0.500000,1.000000
50, test, 7, probe, 10, 3, 2, 2, 3, 0.6, 0.4, right, 2, 0.3, 0.4, 0.6, 0.7, 1.0675779001321644, 0, 99.99957275390625, 1.7832849000114948, 3.000000, 98.000000, 2.000000,2.000000,1.000000,6.000000,0.500000,1.000000
50, test, 7, no_probe, 11, 2, 1, 1, 2, 0.4, 0.3, right, 2, 0.3, 0.4, 0.6, 0.7, 0.6691135999280959, 0, , , 3.000000, 98.000000, 1.000000,3.000000,1.000000,6.000000,0.500000,1.000000
50, test, 7, no_probe, 12, 4, 1, 1, 4, 0.7, 0.3, right, 2, 0.3, 0.4, 0.6, 0.7, 1.0192544001620263, 0, , , 3.000000, 98.000000, 2.000000,3.000000,1.000000,6.000000,0.500000,1.000000
50, test, 7, probe, 13, 4, 2, 4, 2, 0.7, 0.4, left, 1, 0.3, 0.4, 0.6, 0.7, 0.9332194000016898, 1, 99.9990234375, 2.233310000039637, 4.000000, 99.000000, 3.000000,3.000000,1.000000,6.000000,0.500000,1.000000
50, test, 7, no_probe, 14, 3, 2, 3, 2, 0.6, 0.4, left, 1, 0.3, 0.4, 0.6, 0.7, 0.9747478000354022, 1, , , 5.000000, 100.000000, 1.000000,2.000000,1.000000,6.000000,0.500000,1.000000
50, test, 7, probe, 15, 3, 1, 3, 1, 0.6, 0.3, left, 1, 0.3, 0.4, 0.6, 0.7, 0.600594500079751, 0, 99.99984741210938, 2.233312400057912, 5.000000, 100.000000, 2.000000,2.000000,1.000000,6.000000,0.500000,1.000000
50, test, 7, no_probe, 16, 4, 1, 1, 4, 0.7, 0.3, right, 2, 0.3, 0.4, 0.6, 0.7, 0.6464427998289466, 1, , , 6.000000, 101.000000, 1.000000,2.000000,1.000000,6.000000,0.500000,1.000000
50, test, 7, probe, 17, 1, 2, 2, 1, 0.3, 0.4, right, 2, 0.3, 0.4, 0.6, 0.7, 0.8462839000858366, 1, 99.99966430664062, 1.7333209000062197, 7.000000, 102.000000, 2.000000,2.000000,1.000000,6.000000,0.500000,1.000000
50, test, 7, no_probe, 18, 3, 2, 3, 2, 0.6, 0.4, left, 1, 0.3, 0.4, 0.6, 0.7, 1.2959344000555575, 0, , , 7.000000, 102.000000, 1.000000,3.000000,1.000000,6.000000,0.500000,1.000000
50, test, 7, no_probe, 19, 1, 2, 2, 1, 0.3, 0.4, right, 2, 0.3, 0.4, 0.6, 0.7, 0.9018148998729885, 1, , , 8.000000, 103.000000, 2.000000,3.000000,1.000000,6.000000,0.500000,1.000000
50, test, 7, probe, 20, 1, 2, 1, 2, 0.3, 0.4, left, 1, 0.3, 0.4, 0.6, 0.7, 1.0790093000978231, 1, 99.99957275390625, 1.5499654000159353, 9.000000, 104.000000, 3.000000,3.000000,1.000000,6.000000,0.500000,1.000000
50, test, 7, no_probe, 21, 4, 2, 2, 4, 0.7, 0.4, right, 2, 0.3, 0.4, 0.6, 0.7, 0.8130969000048935, 1, , , 10.000000, 105.000000, 1.000000,3.000000,1.000000,6.000000,0.500000,1.000000
50, test, 7, no_probe, 22, 1, 2, 2, 1, 0.3, 0.4, right, 2, 0.3, 0.4, 0.6, 0.7, 0.7148056000005454, 0, , , 10.000000, 105.000000, 2.000000,3.000000,1.000000,6.000000,0.500000,1.000000
50, test, 7, probe, 23, 1, 2, 1, 2, 0.3, 0.4, left, 1, 0.3, 0.4, 0.6, 0.7, 0.442722300067544, 0, 99.999755859375, 1.9333062001969665, 10.000000, 105.000000, 3.000000,3.000000,1.000000,6.000000,0.500000,1.000000
50, test, 7, no_probe, 24, 3, 2, 2, 3, 0.6, 0.4, right, 2, 0.3, 0.4, 0.6, 0.7, 1.052841000026092, 1, , , 11.000000, 106.000000, 1.000000,2.000000,1.000000,6.000000,0.500000,1.000000
50, test, 7, probe, 25, 4, 2, 2, 4, 0.7, 0.4, right, 2, 0.3, 0.4, 0.6, 0.7, 0.5431047000456601, 0, 99.99972534179688, 1.5333376999478787, 11.000000, 106.000000, 2.000000,2.000000,1.000000,6.000000,0.500000,1.000000
50, test, 8, no_probe, 1, 1, 2, 1, 2, 0.3, 0.4, left, 1, 0.3, 0.4, 0.6, 0.7, 0.7207613000646234, 0, , , 0.000000, 106.000000, 1.000000,2.000000,1.000000,6.000000,0.500000,1.000000
50, test, 8, probe, 2, 3, 1, 1, 3, 0.6, 0.3, right, 2, 0.3, 0.4, 0.6, 0.7, 1.1133073000237346, 0, 99.99880981445312, 2.2499985001049936, 0.000000, 106.000000, 2.000000,2.000000,1.000000,6.000000,0.500000,1.000000
50, test, 8, no_probe, 3, 2, 3, 2, 3, 0.4, 0.6, left, 1, 0.3, 0.4, 0.6, 0.7, 0.9620860000140965, 1, , , 1.000000, 107.000000, 1.000000,3.000000,1.000000,6.000000,0.500000,1.000000
50, test, 8, no_probe, 4, 2, 4, 2, 4, 0.4, 0.7, left, 1, 0.3, 0.4, 0.6, 0.7, 0.9301844998262823, 1, , , 2.000000, 108.000000, 2.000000,3.000000,1.000000,6.000000,0.500000,1.000000
50, test, 8, probe, 5, 1, 4, 4, 1, 0.3, 0.7, right, 2, 0.3, 0.4, 0.6, 0.7, 0.7697238998953253, 0, 99.99951171875, 1.8333022999577224, 2.000000, 108.000000, 3.000000,3.000000,1.000000,6.000000,0.500000,1.000000
50, test, 8, no_probe, 6, 2, 3, 2, 3, 0.4, 0.6, left, 1, 0.3, 0.4, 0.6, 0.7, 0.6657771000172943, 0, , , 2.000000, 108.000000, 1.000000,3.000000,1.000000,6.000000,0.500000,1.000000
50, test, 8, no_probe, 7, 2, 3, 2, 3, 0.4, 0.6, left, 1, 0.3, 0.4, 0.6, 0.7, 0.8611849998123944, 0, , , 2.000000, 108.000000, 2.000000,3.000000,1.000000,6.000000,0.500000,1.000000
50, test, 8, probe, 8, 3, 1, 3, 1, 0.6, 0.3, left, 1, 0.3, 0.4, 0.6, 0.7, 0.7189641001168638, 1, 99.999755859375, 1.6999700001906604, 3.000000, 109.000000, 3.000000,3.000000,1.000000,6.000000,0.500000,1.000000
50, test, 8, no_probe, 9, 2, 1, 1, 2, 0.4, 0.3, right, 2, 0.3, 0.4, 0.6, 0.7, 0.803436900023371, 1, , , 4.000000, 110.000000, 1.000000,3.000000,1.000000,6.000000,0.500000,1.000000
50, test, 8, no_probe, 10, 2, 1, 1, 2, 0.4, 0.3, right, 2, 0.3, 0.4, 0.6, 0.7, 0.5492290002293885, 1, , , 5.000000, 111.000000, 2.000000,3.000000,1.000000,6.000000,0.500000,1.000000
50, test, 8, probe, 11, 3, 4, 4, 3, 0.6, 0.7, right, 2, 0.3, 0.4, 0.6, 0.7, 0.4962027999572456, 0, 99.99969482421875, 1.7166113001294434, 5.000000, 111.000000, 3.000000,3.000000,1.000000,6.000000,0.500000,1.000000
50, test, 8, no_probe, 12, 1, 4, 1, 4, 0.3, 0.7, left, 1, 0.3, 0.4, 0.6, 0.7, 1.63106260006316, 1, , , 6.000000, 112.000000, 1.000000,3.000000,1.000000,6.000000,0.500000,1.000000
50, test, 8, no_probe, 13, 1, 4, 4, 1, 0.3, 0.7, right, 2, 0.3, 0.4, 0.6, 0.7, 1.3281743000261486, 0, , , 6.000000, 112.000000, 2.000000,3.000000,1.000000,6.000000,0.500000,1.000000
50, test, 8, probe, 14, 3, 1, 1, 3, 0.6, 0.3, right, 2, 0.3, 0.4, 0.6, 0.7, 1.1948673999868333, 0, 99.999755859375, 1.9333389999810606, 6.000000, 112.000000, 3.000000,3.000000,1.000000,6.000000,0.500000,1.000000
50, test, 8, no_probe, 15, 1, 3, 3, 1, 0.3, 0.6, right, 2, 0.3, 0.4, 0.6, 0.7, 1.3707238999195397, 0, , , 6.000000, 112.000000, 1.000000,3.000000,1.000000,6.000000,0.500000,1.000000
50, test, 8, no_probe, 16, 3, 1, 3, 1, 0.6, 0.3, left, 1, 0.3, 0.4, 0.6, 0.7, 0.4940423001535237, 1, , , 7.000000, 113.000000, 2.000000,3.000000,1.000000,6.000000,0.500000,1.000000
50, test, 8, probe, 17, 1, 4, 4, 1, 0.3, 0.7, right, 2, 0.3, 0.4, 0.6, 0.7, 0.6278142998926342, 0, 88.3160400390625, 2.5332486000843346, 7.000000, 113.000000, 3.000000,3.000000,1.000000,6.000000,0.500000,1.000000
50, test, 8, no_probe, 18, 4, 1, 4, 1, 0.7, 0.3, left, 1, 0.3, 0.4, 0.6, 0.7, 0.7847463998477906, 1, , , 8.000000, 114.000000, 1.000000,2.000000,1.000000,6.000000,0.500000,1.000000
50, test, 8, probe, 19, 2, 4, 4, 2, 0.4, 0.7, right, 2, 0.3, 0.4, 0.6, 0.7, 0.6781331999227405, 0, 91.30880737304688, 1.6999517001677305, 8.000000, 114.000000, 2.000000,2.000000,1.000000,6.000000,0.500000,1.000000
50, test, 8, no_probe, 20, 2, 1, 1, 2, 0.4, 0.3, right, 2, 0.3, 0.4, 0.6, 0.7, 0.8474644001107663, 1, , , 9.000000, 115.000000, 1.000000,2.000000,1.000000,6.000000,0.500000,1.000000
50, test, 8, probe, 21, 4, 2, 2, 4, 0.7, 0.4, right, 2, 0.3, 0.4, 0.6, 0.7, 0.5079818000085652, 1, 87.2354736328125, 1.6500221998430789, 10.000000, 116.000000, 2.000000,2.000000,1.000000,6.000000,0.500000,1.000000
50, test, 8, no_probe, 22, 4, 2, 2, 4, 0.7, 0.4, right, 2, 0.3, 0.4, 0.6, 0.7, 0.6215380001813173, 1, , , 11.000000, 117.000000, 1.000000,3.000000,1.000000,6.000000,0.500000,1.000000
50, test, 8, no_probe, 23, 2, 3, 2, 3, 0.4, 0.6, left, 1, 0.3, 0.4, 0.6, 0.7, 0.6905531000811607, 0, , , 11.000000, 117.000000, 2.000000,3.000000,1.000000,6.000000,0.500000,1.000000
50, test, 8, probe, 24, 4, 3, 3, 4, 0.7, 0.6, right, 2, 0.3, 0.4, 0.6, 0.7, 0.803973900154233, 1, 90.0504150390625, 2.7999629001133144, 12.000000, 118.000000, 3.000000,3.000000,1.000000,6.000000,0.500000,1.000000
50, test, 8, no_probe, 25, 4, 3, 3, 4, 0.7, 0.6, right, 2, 0.3, 0.4, 0.6, 0.7, 0.4646544000133872, 0, , , 12.000000, 118.000000, 1.000000,3.000000,1.000000,6.000000,0.500000,1.000000
