subject, block_type, block, thought probe, trial, chosen, unchosen, offer_left_image, offer_right_image, exp_value_chosen, exp_value_unchosen, choice_location, choice_key, exp_value1, exp_value2, exp_value3, exp_value4, RT, reward, vas, RT_vas, coins_per_block, coins_per_task, count_to_prob, ntrial_to_prob, ITI_duration,RT_deadline,choice_feedback_duration,outcome_duration
17, test, 1, no_probe, 1, 3, 1, 3, 1, 0.6, 0.3, left, 1, 0.3, 0.4, 0.6, 0.7, 0.673583000083454, 1, , , 1.000000, 1.000000, 1.000000,3.000000,1.000000,6.000000,0.500000,1.000000
17, test, 1, no_probe, 2, 4, 2, 4, 2, 0.7, 0.4, left, 1, 0.3, 0.4, 0.6, 0.7, 1.6644015999045223, 1, , , 2.000000, 2.000000, 2.000000,3.000000,1.000000,6.000000,0.500000,1.000000
17, test, 1, abort_prob, 3, 2, 1, 2, 1, 0.4, 0.3, left, 1, 0.3, 0.4, 0.6, 0.7, 2.467181700048968, 0, , , 2.000000, 2.000000, 3.000000,3.000000,1.000000,6.000000,0.500000,1.000000
17, test, 1, no_probe, 4, 1, 2, 2, 1, 0.3, 0.4, right, 2, 0.3, 0.4, 0.6, 0.7, 1.6928548000287265, 1, , , 3.000000, 3.000000, 1.000000,3.000000,1.000000,6.000000,0.500000,1.000000
17, test, 1, no_probe, 5, 1, 3, 1, 3, 0.3, 0.6, left, 1, 0.3, 0.4, 0.6, 0.7, 1.2421136000193655, 0, , , 3.000000, 3.000000, 2.000000,3.000000,1.000000,6.000000,0.500000,1.000000
17, test, 1, probe, 6, 4, 1, 4, 1, 0.7, 0.3, left, 1, 0.3, 0.4, 0.6, 0.7, 1.4432905000867322, 1, 67.2432861328125, 3.349948100047186, 4.000000, 4.000000, 3.000000,3.000000,1.000000,6.000000,0.500000,1.000000
17, test, 1, no_probe, 1, 2, 3, 3, 2, 0.4, 0.6, right, 2, 0.3, 0.4, 0.6, 0.7, 0.9788663000799716, 0, , , 0.000000, 4.000000, 1.000000,2.000000,1.000000,6.000000,0.500000,1.000000
17, test, 1, probe, 2, 4, 2, 2, 4, 0.7, 0.4, right, 2, 0.3, 0.4, 0.6, 0.7, 0.7688158999662846, 1, 86.799072265625, 3.6999752999981865, 1.000000, 5.000000, 2.000000,2.000000,1.000000,6.000000,0.500000,1.000000
17, test, 1, no_probe, 3, 4, 2, 4, 2, 0.7, 0.4, left, 1, 0.3, 0.4, 0.6, 0.7, 1.1107927000848576, 1, , , 2.000000, 6.000000, 1.000000,3.000000,1.000000,6.000000,0.500000,1.000000
17, test, 1, no_probe, 4, 4, 1, 4, 1, 0.7, 0.3, left, 1, 0.3, 0.4, 0.6, 0.7, 0.6083621999714524, 0, , , 2.000000, 6.000000, 2.000000,3.000000,1.000000,6.000000,0.500000,1.000000
17, test, 1, probe, 5, 3, 4, 3, 4, 0.6, 0.7, left, 1, 0.3, 0.4, 0.6, 0.7, 1.0561959999613464, 0, 77.2593994140625, 2.883321800036356, 2.000000, 6.000000, 3.000000,3.000000,1.000000,6.000000,0.500000,1.000000
17, test, 1, no_probe, 6, 2, 3, 3, 2, 0.4, 0.6, right, 2, 0.3, 0.4, 0.6, 0.7, 1.2558605999220163, 1, , , 3.000000, 7.000000, 1.000000,2.000000,1.000000,6.000000,0.500000,1.000000
17, test, 1, probe, 7, 2, 1, 1, 2, 0.4, 0.3, right, 2, 0.3, 0.4, 0.6, 0.7, 1.3079710999736562, 0, 65.07656860351562, 5.566577499965206, 3.000000, 7.000000, 2.000000,2.000000,1.000000,6.000000,0.500000,1.000000
17, test, 1, no_probe, 8, 2, 3, 2, 3, 0.4, 0.6, left, 1, 0.3, 0.4, 0.6, 0.7, 0.8323527999455109, 0, , , 3.000000, 7.000000, 1.000000,3.000000,1.000000,6.000000,0.500000,1.000000
17, test, 1, no_probe, 9, 1, 3, 1, 3, 0.3, 0.6, left, 1, 0.3, 0.4, 0.6, 0.7, 1.2207333999685943, 0, , , 3.000000, 7.000000, 2.000000,3.000000,1.000000,6.000000,0.500000,1.000000
17, test, 1, probe, 10, 2, 4, 2, 4, 0.4, 0.7, left, 1, 0.3, 0.4, 0.6, 0.7, 1.037447299924679, 1, 57.85174560546875, 2.7332875001011416, 4.000000, 8.000000, 3.000000,3.000000,1.000000,6.000000,0.500000,1.000000
17, test, 1, no_probe, 11, 2, 3, 3, 2, 0.4, 0.6, right, 2, 0.3, 0.4, 0.6, 0.7, 1.1514612000901252, 0, , , 4.000000, 8.000000, 1.000000,3.000000,1.000000,6.000000,0.500000,1.000000
17, test, 1, no_probe, 12, 1, 3, 1, 3, 0.3, 0.6, left, 1, 0.3, 0.4, 0.6, 0.7, 1.7146442000521347, 0, , , 4.000000, 8.000000, 2.000000,3.000000,1.000000,6.000000,0.500000,1.000000
17, test, 1, probe, 13, 3, 2, 2, 3, 0.6, 0.4, right, 2, 0.3, 0.4, 0.6, 0.7, 0.6704101000213996, 1, 57.0953369140625, 4.166643299977295, 5.000000, 9.000000, 3.000000,3.000000,1.000000,6.000000,0.500000,1.000000
17, test, 1, no_probe, 14, 3, 1, 3, 1, 0.6, 0.3, left, 1, 0.3, 0.4, 0.6, 0.7, 1.585025699925609, 1, , , 6.000000, 10.000000, 1.000000,3.000000,1.000000,6.000000,0.500000,1.000000
17, test, 1, no_probe, 15, 1, 2, 1, 2, 0.3, 0.4, left, 1, 0.3, 0.4, 0.6, 0.7, 0.9839394999435171, 1, , , 7.000000, 11.000000, 2.000000,3.000000,1.000000,6.000000,0.500000,1.000000
17, test, 1, probe, 16, 1, 2, 2, 1, 0.3, 0.4, right, 2, 0.3, 0.4, 0.6, 0.7, 1.6185913999797776, 0, 65.62857055664062, 2.8832280000206083, 7.000000, 11.000000, 3.000000,3.000000,1.000000,6.000000,0.500000,1.000000
17, test, 1, no_probe, 17, 3, 4, 3, 4, 0.6, 0.7, left, 1, 0.3, 0.4, 0.6, 0.7, 0.7341239000670612, 1, , , 8.000000, 12.000000, 1.000000,2.000000,1.000000,6.000000,0.500000,1.000000
17, test, 1, probe, 18, 3, 1, 1, 3, 0.6, 0.3, right, 2, 0.3, 0.4, 0.6, 0.7, 0.7572689999360591, 1, 63.953460693359375, 2.2999737999634817, 9.000000, 13.000000, 2.000000,2.000000,1.000000,6.000000,0.500000,1.000000
17, test, 1, no_probe, 19, 3, 1, 3, 1, 0.6, 0.3, left, 1, 0.3, 0.4, 0.6, 0.7, 1.2592052000109106, 0, , , 9.000000, 13.000000, 1.000000,2.000000,1.000000,6.000000,0.500000,1.000000
17, test, 1, probe, 20, 2, 4, 2, 4, 0.4, 0.7, left, 1, 0.3, 0.4, 0.6, 0.7, 1.4108564000343904, 0, 58.111053466796875, 2.249994699959643, 9.000000, 13.000000, 2.000000,2.000000,1.000000,6.000000,0.500000,1.000000
17, test, 1, no_probe, 21, 3, 4, 3, 4, 0.6, 0.7, left, 1, 0.3, 0.4, 0.6, 0.7, 1.312679999973625, 1, , , 10.000000, 14.000000, 1.000000,3.000000,1.000000,6.000000,0.500000,1.000000
17, test, 1, no_probe, 22, 4, 2, 4, 2, 0.7, 0.4, left, 1, 0.3, 0.4, 0.6, 0.7, 0.634054800029844, 1, , , 11.000000, 15.000000, 2.000000,3.000000,1.000000,6.000000,0.500000,1.000000
17, test, 1, probe, 23, 4, 2, 2, 4, 0.7, 0.4, right, 2, 0.3, 0.4, 0.6, 0.7, 1.058919999981299, 1, 68.30813598632812, 5.200028100050986, 12.000000, 16.000000, 3.000000,3.000000,1.000000,6.000000,0.500000,1.000000
17, test, 1, no_probe, 24, 1, 2, 1, 2, 0.3, 0.4, left, 1, 0.3, 0.4, 0.6, 0.7, 1.2257974999956787, 1, , , 13.000000, 17.000000, 1.000000,2.000000,1.000000,6.000000,0.500000,1.000000
17, test, 1, probe, 25, 3, 2, 3, 2, 0.6, 0.4, left, 1, 0.3, 0.4, 0.6, 0.7, 0.9182277000509202, 0, 75.417724609375, 3.8165868000360206, 13.000000, 17.000000, 2.000000,2.000000,1.000000,6.000000,0.500000,1.000000
17, test, 2, no_probe, 1, 3, 2, 2, 3, 0.6, 0.4, right, 2, 0.3, 0.4, 0.6, 0.7, 1.4990489000920206, 1, , , 1.000000, 18.000000, 1.000000,3.000000,1.000000,6.000000,0.500000,1.000000
17, test, 2, no_probe, 2, 2, 4, 4, 2, 0.4, 0.7, right, 2, 0.3, 0.4, 0.6, 0.7, 1.964019300066866, 0, , , 1.000000, 18.000000, 2.000000,3.000000,1.000000,6.000000,0.500000,1.000000
17, test, 2, probe, 3, 3, 1, 1, 3, 0.6, 0.3, right, 2, 0.3, 0.4, 0.6, 0.7, 2.4024328000377864, 1, 91.42361450195312, 9.66619860008359, 2.000000, 19.000000, 3.000000,3.000000,1.000000,6.000000,0.500000,1.000000
17, test, 2, no_probe, 4, 4, 3, 3, 4, 0.7, 0.6, right, 2, 0.3, 0.4, 0.6, 0.7, 1.3634677999652922, 1, , , 3.000000, 20.000000, 1.000000,3.000000,1.000000,6.000000,0.500000,1.000000
17, test, 2, no_probe, 5, 2, 1, 1, 2, 0.4, 0.3, right, 2, 0.3, 0.4, 0.6, 0.7, 1.8555730000371113, 0, , , 3.000000, 20.000000, 2.000000,3.000000,1.000000,6.000000,0.500000,1.000000
17, test, 2, probe, 6, 1, 2, 2, 1, 0.3, 0.4, right, 2, 0.3, 0.4, 0.6, 0.7, 1.3506941999075934, 0, 73.179443359375, 2.4333153000334278, 3.000000, 20.000000, 3.000000,3.000000,1.000000,6.000000,0.500000,1.000000
17, test, 2, no_probe, 7, 4, 1, 1, 4, 0.7, 0.3, right, 2, 0.3, 0.4, 0.6, 0.7, 1.886284500011243, 1, , , 4.000000, 21.000000, 1.000000,2.000000,1.000000,6.000000,0.500000,1.000000
17, test, 2, probe, 8, 2, 4, 4, 2, 0.4, 0.7, right, 2, 0.3, 0.4, 0.6, 0.7, 3.9204485999653116, 1, 74.44277954101562, 2.3166549999732524, 5.000000, 22.000000, 2.000000,2.000000,1.000000,6.000000,0.500000,1.000000
17, test, 2, no_probe, 9, 4, 2, 2, 4, 0.7, 0.4, right, 2, 0.3, 0.4, 0.6, 0.7, 1.955614099977538, 0, , , 5.000000, 22.000000, 1.000000,2.000000,1.000000,6.000000,0.500000,1.000000
17, test, 2, probe, 10, 3, 4, 4, 3, 0.6, 0.7, right, 2, 0.3, 0.4, 0.6, 0.7, 1.4347404999425635, 1, 61.333740234375, 5.1833210999611765, 6.000000, 23.000000, 2.000000,2.000000,1.000000,6.000000,0.500000,1.000000
17, test, 2, no_probe, 11, 3, 4, 3, 4, 0.6, 0.7, left, 1, 0.3, 0.4, 0.6, 0.7, 1.2746542999520898, 1, , , 7.000000, 24.000000, 1.000000,3.000000,1.000000,6.000000,0.500000,1.000000
17, test, 2, no_probe, 12, 3, 1, 3, 1, 0.6, 0.3, left, 1, 0.3, 0.4, 0.6, 0.7, 1.044532100087963, 0, , , 7.000000, 24.000000, 2.000000,3.000000,1.000000,6.000000,0.500000,1.000000
17, test, 2, probe, 13, 2, 3, 3, 2, 0.4, 0.6, right, 2, 0.3, 0.4, 0.6, 0.7, 1.159774399944581, 0, 67.01486206054688, 1.8666253000264987, 7.000000, 24.000000, 3.000000,3.000000,1.000000,6.000000,0.500000,1.000000
17, test, 2, no_probe, 14, 2, 4, 2, 4, 0.4, 0.7, left, 1, 0.3, 0.4, 0.6, 0.7, 1.6770041999407113, 0, , , 7.000000, 24.000000, 1.000000,3.000000,1.000000,6.000000,0.500000,1.000000
17, test, 2, no_probe, 15, 3, 2, 2, 3, 0.6, 0.4, right, 2, 0.3, 0.4, 0.6, 0.7, 2.2031528000952676, 1, , , 8.000000, 25.000000, 2.000000,3.000000,1.000000,6.000000,0.500000,1.000000
17, test, 2, probe, 16, 3, 4, 3, 4, 0.6, 0.7, left, 1, 0.3, 0.4, 0.6, 0.7, 2.1233921000966802, 1, 70.35250854492188, 4.199960800004192, 9.000000, 26.000000, 3.000000,3.000000,1.000000,6.000000,0.500000,1.000000
17, test, 2, no_probe, 17, 3, 1, 3, 1, 0.6, 0.3, left, 1, 0.3, 0.4, 0.6, 0.7, 1.1317910000216216, 1, , , 10.000000, 27.000000, 1.000000,3.000000,1.000000,6.000000,0.500000,1.000000
17, test, 2, no_probe, 18, 4, 2, 2, 4, 0.7, 0.4, right, 2, 0.3, 0.4, 0.6, 0.7, 2.00846789998468, 1, , , 11.000000, 28.000000, 2.000000,3.000000,1.000000,6.000000,0.500000,1.000000
17, test, 2, probe, 19, 1, 4, 4, 1, 0.3, 0.7, right, 2, 0.3, 0.4, 0.6, 0.7, 1.2015618999721482, 0, 61.650238037109375, 3.083274899981916, 11.000000, 28.000000, 3.000000,3.000000,1.000000,6.000000,0.500000,1.000000
17, test, 2, no_probe, 20, 2, 3, 3, 2, 0.4, 0.6, right, 2, 0.3, 0.4, 0.6, 0.7, 2.185315000009723, 0, , , 11.000000, 28.000000, 1.000000,3.000000,1.000000,6.000000,0.500000,1.000000
17, test, 2, no_probe, 21, 3, 1, 1, 3, 0.6, 0.3, right, 2, 0.3, 0.4, 0.6, 0.7, 1.2527288999408484, 1, , , 12.000000, 29.000000, 2.000000,3.000000,1.000000,6.000000,0.500000,1.000000
17, test, 2, probe, 22, 3, 4, 3, 4, 0.6, 0.7, left, 1, 0.3, 0.4, 0.6, 0.7, 0.5314246999332681, 1, 69.04354858398438, 2.2499719000188634, 13.000000, 30.000000, 3.000000,3.000000,1.000000,6.000000,0.500000,1.000000
17, test, 2, no_probe, 23, 4, 1, 4, 1, 0.7, 0.3, left, 1, 0.3, 0.4, 0.6, 0.7, 1.2680522999726236, 1, , , 14.000000, 31.000000, 1.000000,3.000000,1.000000,6.000000,0.500000,1.000000
17, test, 2, no_probe, 24, 2, 1, 2, 1, 0.4, 0.3, left, 1, 0.3, 0.4, 0.6, 0.7, 1.579449599958025, 0, , , 14.000000, 31.000000, 2.000000,3.000000,1.000000,6.000000,0.500000,1.000000
17, test, 2, probe, 25, 2, 4, 2, 4, 0.4, 0.7, left, 1, 0.3, 0.4, 0.6, 0.7, 1.3804597000125796, 0, 67.50540161132812, 2.066608599969186, 14.000000, 31.000000, 3.000000,3.000000,1.000000,6.000000,0.500000,1.000000
17, test, 3, no_probe, 1, 1, 3, 3, 1, 0.3, 0.6, right, 2, 0.3, 0.4, 0.6, 0.7, 1.18684530002065, 0, , , 0.000000, 31.000000, 1.000000,2.000000,1.000000,6.000000,0.500000,1.000000
17, test, 3, probe, 2, 4, 2, 2, 4, 0.7, 0.4, right, 2, 0.3, 0.4, 0.6, 0.7, 1.8699091000016779, 1, 58.751617431640625, 2.583296800032258, 1.000000, 32.000000, 2.000000,2.000000,1.000000,6.000000,0.500000,1.000000
17, test, 3, no_probe, 3, 3, 1, 1, 3, 0.6, 0.3, right, 2, 0.3, 0.4, 0.6, 0.7, 1.4235425000078976, 0, , , 1.000000, 32.000000, 1.000000,2.000000,1.000000,6.000000,0.500000,1.000000
17, test, 3, probe, 4, 2, 1, 2, 1, 0.4, 0.3, left, 1, 0.3, 0.4, 0.6, 0.7, 2.411693300004117, 0, 60.929840087890625, 5.066584500018507, 1.000000, 32.000000, 2.000000,2.000000,1.000000,6.000000,0.500000,1.000000
17, test, 3, no_probe, 5, 1, 3, 3, 1, 0.3, 0.6, right, 2, 0.3, 0.4, 0.6, 0.7, 1.4055989000480622, 0, , , 1.000000, 32.000000, 1.000000,2.000000,1.000000,6.000000,0.500000,1.000000
17, test, 3, probe, 6, 4, 2, 4, 2, 0.7, 0.4, left, 1, 0.3, 0.4, 0.6, 0.7, 0.6788917999947444, 0, 37.952423095703125, 3.216584700043313, 1.000000, 32.000000, 2.000000,2.000000,1.000000,6.000000,0.500000,1.000000
17, test, 3, no_probe, 7, 3, 4, 4, 3, 0.6, 0.7, right, 2, 0.3, 0.4, 0.6, 0.7, 1.4415562000358477, 1, , , 2.000000, 33.000000, 1.000000,3.000000,1.000000,6.000000,0.500000,1.000000
17, test, 3, no_probe, 8, 2, 3, 3, 2, 0.4, 0.6, right, 2, 0.3, 0.4, 0.6, 0.7, 1.0382151999510825, 1, , , 3.000000, 34.000000, 2.000000,3.000000,1.000000,6.000000,0.500000,1.000000
17, test, 3, probe, 9, 2, 1, 2, 1, 0.4, 0.3, left, 1, 0.3, 0.4, 0.6, 0.7, 0.6441021000500768, 0, 58.9219970703125, 4.56659399997443, 3.000000, 34.000000, 3.000000,3.000000,1.000000,6.000000,0.500000,1.000000
17, test, 3, no_probe, 10, 4, 1, 4, 1, 0.7, 0.3, left, 1, 0.3, 0.4, 0.6, 0.7, 1.8142292998963967, 1, , , 4.000000, 35.000000, 1.000000,3.000000,1.000000,6.000000,0.500000,1.000000
17, test, 3, no_probe, 11, 2, 3, 3, 2, 0.4, 0.6, right, 2, 0.3, 0.4, 0.6, 0.7, 1.1579828999238089, 1, , , 5.000000, 36.000000, 2.000000,3.000000,1.000000,6.000000,0.500000,1.000000
17, test, 3, probe, 12, 4, 2, 2, 4, 0.7, 0.4, right, 2, 0.3, 0.4, 0.6, 0.7, 1.7705104999477044, 1, 59.5389404296875, 7.599882100010291, 6.000000, 37.000000, 3.000000,3.000000,1.000000,6.000000,0.500000,1.000000
17, test, 3, no_probe, 13, 2, 1, 2, 1, 0.4, 0.3, left, 1, 0.3, 0.4, 0.6, 0.7, 1.9780428000958636, 0, , , 6.000000, 37.000000, 1.000000,2.000000,1.000000,6.000000,0.500000,1.000000
17, test, 3, probe, 14, 4, 1, 1, 4, 0.7, 0.3, right, 2, 0.3, 0.4, 0.6, 0.7, 1.6614820000249892, 0, 42.709381103515625, 1.849967799964361, 6.000000, 37.000000, 2.000000,2.000000,1.000000,6.000000,0.500000,1.000000
17, test, 3, no_probe, 15, 1, 4, 1, 4, 0.3, 0.7, left, 1, 0.3, 0.4, 0.6, 0.7, 1.2758057999890298, 0, , , 6.000000, 37.000000, 1.000000,2.000000,1.000000,6.000000,0.500000,1.000000
17, test, 3, probe, 16, 2, 4, 4, 2, 0.4, 0.7, right, 2, 0.3, 0.4, 0.6, 0.7, 1.279705399996601, 0, 43.411651611328125, 3.716630000039004, 6.000000, 37.000000, 2.000000,2.000000,1.000000,6.000000,0.500000,1.000000
17, test, 3, no_probe, 17, 2, 1, 2, 1, 0.4, 0.3, left, 1, 0.3, 0.4, 0.6, 0.7, 1.4636243999702856, 1, , , 7.000000, 38.000000, 1.000000,3.000000,1.000000,6.000000,0.500000,1.000000
17, test, 3, no_probe, 18, 2, 3, 2, 3, 0.4, 0.6, left, 1, 0.3, 0.4, 0.6, 0.7, 1.9012565999291837, 1, , , 8.000000, 39.000000, 2.000000,3.000000,1.000000,6.000000,0.500000,1.000000
17, test, 3, probe, 19, 3, 4, 3, 4, 0.6, 0.7, left, 1, 0.3, 0.4, 0.6, 0.7, 1.5188084999099374, 0, 59.93377685546875, 1.5666098999790847, 8.000000, 39.000000, 3.000000,3.000000,1.000000,6.000000,0.500000,1.000000
17, test, 3, no_probe, 20, 4, 1, 4, 1, 0.7, 0.3, left, 1, 0.3, 0.4, 0.6, 0.7, 2.6994345999555662, 0, , , 8.000000, 39.000000, 1.000000,3.000000,1.000000,6.000000,0.500000,1.000000
17, test, 3, no_probe, 21, 2, 3, 2, 3, 0.4, 0.6, left, 1, 0.3, 0.4, 0.6, 0.7, 1.3130273999413475, 1, , , 9.000000, 40.000000, 2.000000,3.000000,1.000000,6.000000,0.500000,1.000000
17, test, 3, probe, 22, 3, 1, 1, 3, 0.6, 0.3, right, 2, 0.3, 0.4, 0.6, 0.7, 1.4508068000432104, 0, 39.0084228515625, 3.6499441999476403, 9.000000, 40.000000, 3.000000,3.000000,1.000000,6.000000,0.500000,1.000000
17, test, 3, no_probe, 23, 1, 3, 1, 3, 0.3, 0.6, left, 1, 0.3, 0.4, 0.6, 0.7, 0.8377614000346512, 1, , , 10.000000, 41.000000, 1.000000,3.000000,1.000000,6.000000,0.500000,1.000000
17, test, 3, no_probe, 24, 4, 1, 4, 1, 0.7, 0.3, left, 1, 0.3, 0.4, 0.6, 0.7, 1.669759999960661, 1, , , 11.000000, 42.000000, 2.000000,3.000000,1.000000,6.000000,0.500000,1.000000
17, test, 3, probe, 25, 1, 2, 2, 1, 0.3, 0.4, right, 2, 0.3, 0.4, 0.6, 0.7, 1.7413154999958351, 0, 42.207427978515625, 3.683256599935703, 11.000000, 42.000000, 3.000000,3.000000,1.000000,6.000000,0.500000,1.000000
17, test, 4, no_probe, 1, 3, 4, 4, 3, 0.6, 0.7, right, 2, 0.3, 0.4, 0.6, 0.7, 1.4932454000227153, 1, , , 1.000000, 43.000000, 1.000000,2.000000,1.000000,6.000000,0.500000,1.000000
17, test, 4, probe, 2, 1, 4, 4, 1, 0.3, 0.7, right, 2, 0.3, 0.4, 0.6, 0.7, 1.371882800012827, 1, 39.92840576171875, 2.9999740999192, 2.000000, 44.000000, 2.000000,2.000000,1.000000,6.000000,0.500000,1.000000
17, test, 4, no_probe, 3, 3, 4, 3, 4, 0.6, 0.7, left, 1, 0.3, 0.4, 0.6, 0.7, 0.9685957999899983, 1, , , 3.000000, 45.000000, 1.000000,3.000000,1.000000,6.000000,0.500000,1.000000
17, test, 4, no_probe, 4, 2, 3, 2, 3, 0.4, 0.6, left, 1, 0.3, 0.4, 0.6, 0.7, 1.7543838999699801, 1, , , 4.000000, 46.000000, 2.000000,3.000000,1.000000,6.000000,0.500000,1.000000
17, test, 4, probe, 5, 2, 1, 1, 2, 0.4, 0.3, right, 2, 0.3, 0.4, 0.6, 0.7, 0.9308928999816999, 1, 54.6827392578125, 1.8166651000501588, 5.000000, 47.000000, 3.000000,3.000000,1.000000,6.000000,0.500000,1.000000
17, test, 4, no_probe, 6, 3, 4, 4, 3, 0.6, 0.7, right, 2, 0.3, 0.4, 0.6, 0.7, 0.7962063999148086, 1, , , 6.000000, 48.000000, 1.000000,2.000000,1.000000,6.000000,0.500000,1.000000
17, test, 4, probe, 7, 3, 4, 3, 4, 0.6, 0.7, left, 1, 0.3, 0.4, 0.6, 0.7, 0.7298269000602886, 1, 65.704833984375, 2.816576899960637, 7.000000, 49.000000, 2.000000,2.000000,1.000000,6.000000,0.500000,1.000000
17, test, 4, no_probe, 8, 2, 1, 2, 1, 0.4, 0.3, left, 1, 0.3, 0.4, 0.6, 0.7, 0.623705199919641, 1, , , 8.000000, 50.000000, 1.000000,2.000000,1.000000,6.000000,0.500000,1.000000
17, test, 4, probe, 9, 2, 1, 2, 1, 0.4, 0.3, left, 1, 0.3, 0.4, 0.6, 0.7, 0.548213499947451, 1, 65.71237182617188, 2.0500048000831157, 9.000000, 51.000000, 2.000000,2.000000,1.000000,6.000000,0.500000,1.000000
17, test, 4, no_probe, 10, 1, 4, 1, 4, 0.3, 0.7, left, 1, 0.3, 0.4, 0.6, 0.7, 0.6400550999678671, 0, , , 9.000000, 51.000000, 1.000000,2.000000,1.000000,6.000000,0.500000,1.000000
17, test, 4, probe, 11, 2, 4, 2, 4, 0.4, 0.7, left, 1, 0.3, 0.4, 0.6, 0.7, 2.0813596999505535, 0, 58.33154296875, 2.6499605999561027, 9.000000, 51.000000, 2.000000,2.000000,1.000000,6.000000,0.500000,1.000000
17, test, 4, no_probe, 12, 2, 1, 1, 2, 0.4, 0.3, right, 2, 0.3, 0.4, 0.6, 0.7, 1.4991760000120848, 0, , , 9.000000, 51.000000, 1.000000,2.000000,1.000000,6.000000,0.500000,1.000000
17, test, 4, probe, 13, 2, 1, 2, 1, 0.4, 0.3, left, 1, 0.3, 0.4, 0.6, 0.7, 1.2449930000584573, 0, 62.718658447265625, 6.649967799894512, 9.000000, 51.000000, 2.000000,2.000000,1.000000,6.000000,0.500000,1.000000
17, test, 4, no_probe, 14, 3, 4, 3, 4, 0.6, 0.7, left, 1, 0.3, 0.4, 0.6, 0.7, 0.9688720999984071, 1, , , 10.000000, 52.000000, 1.000000,3.000000,1.000000,6.000000,0.500000,1.000000
17, test, 4, no_probe, 15, 1, 3, 1, 3, 0.3, 0.6, left, 1, 0.3, 0.4, 0.6, 0.7, 1.7554166000336409, 0, , , 10.000000, 52.000000, 2.000000,3.000000,1.000000,6.000000,0.500000,1.000000
17, test, 4, probe, 16, 3, 1, 3, 1, 0.6, 0.3, left, 1, 0.3, 0.4, 0.6, 0.7, 1.9909089000429958, 1, 64.78509521484375, 1.9666280000237748, 11.000000, 53.000000, 3.000000,3.000000,1.000000,6.000000,0.500000,1.000000
17, test, 4, no_probe, 17, 1, 3, 3, 1, 0.3, 0.6, right, 2, 0.3, 0.4, 0.6, 0.7, 1.1293418999994174, 1, , , 12.000000, 54.000000, 1.000000,3.000000,1.000000,6.000000,0.500000,1.000000
17, test, 4, no_probe, 18, 4, 2, 4, 2, 0.7, 0.4, left, 1, 0.3, 0.4, 0.6, 0.7, 1.2126984000205994, 1, , , 13.000000, 55.000000, 2.000000,3.000000,1.000000,6.000000,0.500000,1.000000
17, test, 4, probe, 19, 1, 2, 2, 1, 0.3, 0.4, right, 2, 0.3, 0.4, 0.6, 0.7, 1.1493358000880107, 1, 65.89096069335938, 2.1665974999777973, 14.000000, 56.000000, 3.000000,3.000000,1.000000,6.000000,0.500000,1.000000
17, test, 4, no_probe, 20, 4, 2, 2, 4, 0.7, 0.4, right, 2, 0.3, 0.4, 0.6, 0.7, 1.0812488000374287, 1, , , 15.000000, 57.000000, 1.000000,3.000000,1.000000,6.000000,0.500000,1.000000
17, test, 4, no_probe, 21, 3, 2, 3, 2, 0.6, 0.4, left, 1, 0.3, 0.4, 0.6, 0.7, 1.5635174999479204, 1, , , 16.000000, 58.000000, 2.000000,3.000000,1.000000,6.000000,0.500000,1.000000
17, test, 4, probe, 22, 4, 1, 4, 1, 0.7, 0.3, left, 1, 0.3, 0.4, 0.6, 0.7, 1.2535154999932274, 1, 56.842987060546875, 2.933294599992223, 17.000000, 59.000000, 3.000000,3.000000,1.000000,6.000000,0.500000,1.000000
17, test, 4, no_probe, 23, 1, 2, 1, 2, 0.3, 0.4, left, 1, 0.3, 0.4, 0.6, 0.7, 0.9759244999149814, 0, , , 17.000000, 59.000000, 1.000000,2.000000,1.000000,6.000000,0.500000,1.000000
17, test, 4, probe, 24, 2, 1, 1, 2, 0.4, 0.3, right, 2, 0.3, 0.4, 0.6, 0.7, 0.6386963999830186, 0, 56.777923583984375, 2.1999694000696763, 17.000000, 59.000000, 2.000000,2.000000,1.000000,6.000000,0.500000,1.000000
17, test, 4, no_probe, 25, 1, 3, 1, 3, 0.3, 0.6, left, 1, 0.3, 0.4, 0.6, 0.7, 2.3046111000003293, 0, , , 17.000000, 59.000000, 1.000000,2.000000,1.000000,6.000000,0.500000,1.000000
17, test, 5, no_probe, 1, 1, 3, 3, 1, 0.3, 0.6, right, 2, 0.3, 0.4, 0.6, 0.7, 0.8599576000124216, 0, , , 0.000000, 59.000000, 1.000000,2.000000,1.000000,6.000000,0.500000,1.000000
17, test, 5, probe, 2, 4, 1, 4, 1, 0.7, 0.3, left, 1, 0.3, 0.4, 0.6, 0.7, 1.7817145000444725, 1, 74.63275146484375, 2.783234899980016, 1.000000, 60.000000, 2.000000,2.000000,1.000000,6.000000,0.500000,1.000000
17, test, 5, no_probe, 3, 3, 1, 1, 3, 0.6, 0.3, right, 2, 0.3, 0.4, 0.6, 0.7, 1.440711100003682, 1, , , 2.000000, 61.000000, 1.000000,2.000000,1.000000,6.000000,0.500000,1.000000
17, test, 5, probe, 4, 4, 1, 1, 4, 0.7, 0.3, right, 2, 0.3, 0.4, 0.6, 0.7, 1.079114199965261, 1, 69.50241088867188, 1.949984300066717, 3.000000, 62.000000, 2.000000,2.000000,1.000000,6.000000,0.500000,1.000000
17, test, 5, no_probe, 5, 2, 3, 2, 3, 0.4, 0.6, left, 1, 0.3, 0.4, 0.6, 0.7, 1.3513234000420198, 1, , , 4.000000, 63.000000, 1.000000,3.000000,1.000000,6.000000,0.500000,1.000000
17, test, 5, no_probe, 6, 2, 4, 4, 2, 0.4, 0.7, right, 2, 0.3, 0.4, 0.6, 0.7, 2.582374699995853, 0, , , 4.000000, 63.000000, 2.000000,3.000000,1.000000,6.000000,0.500000,1.000000
17, test, 5, probe, 7, 3, 1, 3, 1, 0.6, 0.3, left, 1, 0.3, 0.4, 0.6, 0.7, 2.7239422999555245, 0, 59.1458740234375, 5.099912300007418, 4.000000, 63.000000, 3.000000,3.000000,1.000000,6.000000,0.500000,1.000000
17, test, 5, no_probe, 8, 2, 4, 4, 2, 0.4, 0.7, right, 2, 0.3, 0.4, 0.6, 0.7, 1.5352174000581726, 0, , , 4.000000, 63.000000, 1.000000,3.000000,1.000000,6.000000,0.500000,1.000000
17, test, 5, no_probe, 9, 4, 1, 1, 4, 0.7, 0.3, right, 2, 0.3, 0.4, 0.6, 0.7, 1.6590276999631897, 1, , , 5.000000, 64.000000, 2.000000,3.000000,1.000000,6.000000,0.500000,1.000000
17, test, 5, probe, 10, 2, 3, 2, 3, 0.4, 0.6, left, 1, 0.3, 0.4, 0.6, 0.7, 1.2666284000733867, 1, 69.64932250976562, 1.7499504999723285, 6.000000, 65.000000, 3.000000,3.000000,1.000000,6.000000,0.500000,1.000000
17, test, 5, no_probe, 11, 2, 4, 4, 2, 0.4, 0.7, right, 2, 0.3, 0.4, 0.6, 0.7, 2.098714599967934, 0, , , 6.000000, 65.000000, 1.000000,2.000000,1.000000,6.000000,0.500000,1.000000
17, test, 5, probe, 12, 2, 1, 2, 1, 0.4, 0.3, left, 1, 0.3, 0.4, 0.6, 0.7, 1.2760713000316173, 1, 69.12106323242188, 2.549989999970421, 7.000000, 66.000000, 2.000000,2.000000,1.000000,6.000000,0.500000,1.000000
17, test, 5, no_probe, 13, 4, 2, 4, 2, 0.7, 0.4, left, 1, 0.3, 0.4, 0.6, 0.7, 1.3592262999154627, 1, , , 8.000000, 67.000000, 1.000000,2.000000,1.000000,6.000000,0.500000,1.000000
17, test, 5, probe, 14, 2, 3, 3, 2, 0.4, 0.6, right, 2, 0.3, 0.4, 0.6, 0.7, 1.3472961999941617, 0, 55.617279052734375, 1.5832973000360653, 8.000000, 67.000000, 2.000000,2.000000,1.000000,6.000000,0.500000,1.000000
17, test, 5, no_probe, 15, 3, 4, 3, 4, 0.6, 0.7, left, 1, 0.3, 0.4, 0.6, 0.7, 2.7245090999640524, 1, , , 9.000000, 68.000000, 1.000000,3.000000,1.000000,6.000000,0.500000,1.000000
17, test, 5, no_probe, 16, 4, 2, 2, 4, 0.7, 0.4, right, 2, 0.3, 0.4, 0.6, 0.7, 1.6735876000020653, 0, , , 9.000000, 68.000000, 2.000000,3.000000,1.000000,6.000000,0.500000,1.000000
17, test, 5, probe, 17, 4, 1, 4, 1, 0.7, 0.3, left, 1, 0.3, 0.4, 0.6, 0.7, 0.9139589999103919, 1, 70.38278198242188, 1.5666169000323862, 10.000000, 69.000000, 3.000000,3.000000,1.000000,6.000000,0.500000,1.000000
17, test, 5, no_probe, 18, 3, 1, 3, 1, 0.6, 0.3, left, 1, 0.3, 0.4, 0.6, 0.7, 0.7743990999879315, 0, , , 10.000000, 69.000000, 1.000000,3.000000,1.000000,6.000000,0.500000,1.000000
17, test, 5, no_probe, 19, 4, 2, 4, 2, 0.7, 0.4, left, 1, 0.3, 0.4, 0.6, 0.7, 1.6761511999648064, 1, , , 11.000000, 70.000000, 2.000000,3.000000,1.000000,6.000000,0.500000,1.000000
17, test, 5, probe, 20, 3, 1, 3, 1, 0.6, 0.3, left, 1, 0.3, 0.4, 0.6, 0.7, 0.7515154000138864, 0, 64.93109130859375, 1.4833467999706045, 11.000000, 70.000000, 3.000000,3.000000,1.000000,6.000000,0.500000,1.000000
17, test, 5, no_probe, 21, 3, 4, 3, 4, 0.6, 0.7, left, 1, 0.3, 0.4, 0.6, 0.7, 1.669539300026372, 1, , , 12.000000, 71.000000, 1.000000,3.000000,1.000000,6.000000,0.500000,1.000000
17, test, 5, no_probe, 22, 3, 4, 4, 3, 0.6, 0.7, right, 2, 0.3, 0.4, 0.6, 0.7, 0.8894342000130564, 1, , , 13.000000, 72.000000, 2.000000,3.000000,1.000000,6.000000,0.500000,1.000000
17, test, 5, probe, 23, 2, 3, 3, 2, 0.4, 0.6, right, 2, 0.3, 0.4, 0.6, 0.7, 1.1909546999959275, 0, 57.358978271484375, 2.4166174000129104, 13.000000, 72.000000, 3.000000,3.000000,1.000000,6.000000,0.500000,1.000000
17, test, 5, no_probe, 24, 3, 4, 3, 4, 0.6, 0.7, left, 1, 0.3, 0.4, 0.6, 0.7, 0.8393173000076786, 1, , , 14.000000, 73.000000, 1.000000,2.000000,1.000000,6.000000,0.500000,1.000000
17, test, 5, probe, 25, 4, 2, 2, 4, 0.7, 0.4, right, 2, 0.3, 0.4, 0.6, 0.7, 2.097995800082572, 1, 67.77813720703125, 1.8999578999355435, 15.000000, 74.000000, 2.000000,2.000000,1.000000,6.000000,0.500000,1.000000
17, test, 6, no_probe, 1, 2, 1, 1, 2, 0.4, 0.3, right, 2, 0.3, 0.4, 0.6, 0.7, 1.5955345999682322, 0, , , 0.000000, 74.000000, 1.000000,3.000000,1.000000,6.000000,0.500000,1.000000
17, test, 6, no_probe, 2, 3, 1, 3, 1, 0.6, 0.3, left, 1, 0.3, 0.4, 0.6, 0.7, 1.3057014000369236, 0, , , 0.000000, 74.000000, 2.000000,3.000000,1.000000,6.000000,0.500000,1.000000
17, test, 6, probe, 3, 4, 3, 4, 3, 0.7, 0.6, left, 1, 0.3, 0.4, 0.6, 0.7, 1.9075868000509217, 0, 56.07843017578125, 2.332891200087033, 0.000000, 74.000000, 3.000000,3.000000,1.000000,6.000000,0.500000,1.000000
17, test, 6, no_probe, 4, 2, 4, 2, 4, 0.4, 0.7, left, 1, 0.3, 0.4, 0.6, 0.7, 1.9503527999622747, 1, , , 1.000000, 75.000000, 1.000000,2.000000,1.000000,6.000000,0.500000,1.000000
17, test, 6, probe, 5, 1, 4, 1, 4, 0.3, 0.7, left, 1, 0.3, 0.4, 0.6, 0.7, 1.0659794999519363, 0, 43.24554443359375, 3.3833257999503985, 1.000000, 75.000000, 2.000000,2.000000,1.000000,6.000000,0.500000,1.000000
17, test, 6, no_probe, 6, 1, 2, 1, 2, 0.3, 0.4, left, 1, 0.3, 0.4, 0.6, 0.7, 1.610535699990578, 0, , , 1.000000, 75.000000, 1.000000,2.000000,1.000000,6.000000,0.500000,1.000000
17, test, 6, probe, 7, 3, 4, 3, 4, 0.6, 0.7, left, 1, 0.3, 0.4, 0.6, 0.7, 1.7651064000092447, 1, 59.573944091796875, 3.833282300038263, 2.000000, 76.000000, 2.000000,2.000000,1.000000,6.000000,0.500000,1.000000
17, test, 6, no_probe, 8, 3, 2, 3, 2, 0.6, 0.4, left, 1, 0.3, 0.4, 0.6, 0.7, 1.4531680000945926, 1, , , 3.000000, 77.000000, 1.000000,2.000000,1.000000,6.000000,0.500000,1.000000
17, test, 6, probe, 9, 2, 4, 2, 4, 0.4, 0.7, left, 1, 0.3, 0.4, 0.6, 0.7, 1.8000220999820158, 0, 60.335296630859375, 1.9999891000334173, 3.000000, 77.000000, 2.000000,2.000000,1.000000,6.000000,0.500000,1.000000
17, test, 6, no_probe, 10, 3, 4, 3, 4, 0.6, 0.7, left, 1, 0.3, 0.4, 0.6, 0.7, 1.8131391999777406, 1, , , 4.000000, 78.000000, 1.000000,3.000000,1.000000,6.000000,0.500000,1.000000
17, test, 6, no_probe, 11, 1, 2, 2, 1, 0.3, 0.4, right, 2, 0.3, 0.4, 0.6, 0.7, 0.7092768000438809, 0, , , 4.000000, 78.000000, 2.000000,3.000000,1.000000,6.000000,0.500000,1.000000
17, test, 6, probe, 12, 3, 1, 3, 1, 0.6, 0.3, left, 1, 0.3, 0.4, 0.6, 0.7, 2.694227600004524, 0, 39.2674560546875, 1.6666596001014113, 4.000000, 78.000000, 3.000000,3.000000,1.000000,6.000000,0.500000,1.000000
17, test, 6, no_probe, 13, 2, 4, 4, 2, 0.4, 0.7, right, 2, 0.3, 0.4, 0.6, 0.7, 1.7640222000190988, 1, , , 5.000000, 79.000000, 1.000000,2.000000,1.000000,6.000000,0.500000,1.000000
17, test, 6, probe, 14, 3, 1, 3, 1, 0.6, 0.3, left, 1, 0.3, 0.4, 0.6, 0.7, 1.475665200036019, 1, 60.501739501953125, 6.76656850008294, 6.000000, 80.000000, 2.000000,2.000000,1.000000,6.000000,0.500000,1.000000
17, test, 6, no_probe, 15, 3, 1, 3, 1, 0.6, 0.3, left, 1, 0.3, 0.4, 0.6, 0.7, 0.8739015000173822, 0, , , 6.000000, 80.000000, 1.000000,3.000000,1.000000,6.000000,0.500000,1.000000
17, test, 6, no_probe, 16, 3, 4, 4, 3, 0.6, 0.7, right, 2, 0.3, 0.4, 0.6, 0.7, 0.9692099000094458, 1, , , 7.000000, 81.000000, 2.000000,3.000000,1.000000,6.000000,0.500000,1.000000
17, test, 6, probe, 17, 2, 3, 2, 3, 0.4, 0.6, left, 1, 0.3, 0.4, 0.6, 0.7, 1.698639199952595, 1, 61.325408935546875, 1.4166438000975177, 8.000000, 82.000000, 3.000000,3.000000,1.000000,6.000000,0.500000,1.000000
17, test, 6, no_probe, 18, 3, 1, 3, 1, 0.6, 0.3, left, 1, 0.3, 0.4, 0.6, 0.7, 1.1670831000665203, 1, , , 9.000000, 83.000000, 1.000000,3.000000,1.000000,6.000000,0.500000,1.000000
17, test, 6, no_probe, 19, 3, 1, 1, 3, 0.6, 0.3, right, 2, 0.3, 0.4, 0.6, 0.7, 0.8611155000980943, 0, , , 9.000000, 83.000000, 2.000000,3.000000,1.000000,6.000000,0.500000,1.000000
17, test, 6, probe, 20, 4, 2, 2, 4, 0.7, 0.4, right, 2, 0.3, 0.4, 0.6, 0.7, 2.4916876999195665, 1, 69.33245849609375, 2.6333074000431225, 10.000000, 84.000000, 3.000000,3.000000,1.000000,6.000000,0.500000,1.000000
17, test, 6, no_probe, 21, 2, 1, 2, 1, 0.4, 0.3, left, 1, 0.3, 0.4, 0.6, 0.7, 1.619531000033021, 1, , , 11.000000, 85.000000, 1.000000,3.000000,1.000000,6.000000,0.500000,1.000000
17, test, 6, no_probe, 22, 3, 4, 3, 4, 0.6, 0.7, left, 1, 0.3, 0.4, 0.6, 0.7, 1.5170174000086263, 1, , , 12.000000, 86.000000, 2.000000,3.000000,1.000000,6.000000,0.500000,1.000000
17, test, 6, probe, 23, 1, 4, 4, 1, 0.3, 0.7, right, 2, 0.3, 0.4, 0.6, 0.7, 2.365038000047207, 0, 62.578826904296875, 4.633232499938458, 12.000000, 86.000000, 3.000000,3.000000,1.000000,6.000000,0.500000,1.000000
17, test, 6, no_probe, 24, 2, 4, 2, 4, 0.4, 0.7, left, 1, 0.3, 0.4, 0.6, 0.7, 1.7695278999162838, 0, , , 12.000000, 86.000000, 1.000000,2.000000,1.000000,6.000000,0.500000,1.000000
17, test, 6, probe, 25, 1, 2, 1, 2, 0.3, 0.4, left, 1, 0.3, 0.4, 0.6, 0.7, 2.7038799999281764, 0, 49.997039794921875, 1.616657399921678, 12.000000, 86.000000, 2.000000,2.000000,1.000000,6.000000,0.500000,1.000000
17, test, 7, no_probe, 1, 4, 1, 4, 1, 0.7, 0.3, left, 1, 0.3, 0.4, 0.6, 0.7, 1.3523508000653237, 0, , , 0.000000, 86.000000, 1.000000,2.000000,1.000000,6.000000,0.500000,1.000000
17, test, 7, probe, 2, 2, 3, 2, 3, 0.4, 0.6, left, 1, 0.3, 0.4, 0.6, 0.7, 2.2069228999316692, 1, 69.73028564453125, 3.5165997999720275, 1.000000, 87.000000, 2.000000,2.000000,1.000000,6.000000,0.500000,1.000000
17, test, 7, no_probe, 3, 2, 1, 1, 2, 0.4, 0.3, right, 2, 0.3, 0.4, 0.6, 0.7, 1.7776595000177622, 0, , , 1.000000, 87.000000, 1.000000,3.000000,1.000000,6.000000,0.500000,1.000000
17, test, 7, no_probe, 4, 1, 4, 1, 4, 0.3, 0.7, left, 1, 0.3, 0.4, 0.6, 0.7, 0.9836955000646412, 0, , , 1.000000, 87.000000, 2.000000,3.000000,1.000000,6.000000,0.500000,1.000000
17, test, 7, probe, 5, 4, 3, 4, 3, 0.7, 0.6, left, 1, 0.3, 0.4, 0.6, 0.7, 1.6950572000350803, 1, 62.50799560546875, 1.449976300005801, 2.000000, 88.000000, 3.000000,3.000000,1.000000,6.000000,0.500000,1.000000
17, test, 7, no_probe, 6, 1, 4, 4, 1, 0.3, 0.7, right, 2, 0.3, 0.4, 0.6, 0.7, 1.9812025999417529, 0, , , 2.000000, 88.000000, 1.000000,3.000000,1.000000,6.000000,0.500000,1.000000
17, test, 7, no_probe, 7, 4, 2, 4, 2, 0.7, 0.4, left, 1, 0.3, 0.4, 0.6, 0.7, 1.4027613999787718, 1, , , 3.000000, 89.000000, 2.000000,3.000000,1.000000,6.000000,0.500000,1.000000
17, test, 7, probe, 8, 3, 1, 3, 1, 0.6, 0.3, left, 1, 0.3, 0.4, 0.6, 0.7, 1.8163493000902236, 0, 65.35092163085938, 5.083226500079036, 3.000000, 89.000000, 3.000000,3.000000,1.000000,6.000000,0.500000,1.000000
17, test, 7, no_probe, 9, 4, 3, 3, 4, 0.7, 0.6, right, 2, 0.3, 0.4, 0.6, 0.7, 1.5522005999227986, 1, , , 4.000000, 90.000000, 1.000000,3.000000,1.000000,6.000000,0.500000,1.000000
17, test, 7, no_probe, 10, 1, 4, 1, 4, 0.3, 0.7, left, 1, 0.3, 0.4, 0.6, 0.7, 1.1826625999528915, 0, , , 4.000000, 90.000000, 2.000000,3.000000,1.000000,6.000000,0.500000,1.000000
17, test, 7, probe, 11, 1, 3, 1, 3, 0.3, 0.6, left, 1, 0.3, 0.4, 0.6, 0.7, 2.036992199951783, 1, 59.76214599609375, 1.4666274999035522, 5.000000, 91.000000, 3.000000,3.000000,1.000000,6.000000,0.500000,1.000000
17, test, 7, no_probe, 12, 4, 3, 3, 4, 0.7, 0.6, right, 2, 0.3, 0.4, 0.6, 0.7, 1.6927311000181362, 1, , , 6.000000, 92.000000, 1.000000,3.000000,1.000000,6.000000,0.500000,1.000000
17, test, 7, no_probe, 13, 2, 3, 2, 3, 0.4, 0.6, left, 1, 0.3, 0.4, 0.6, 0.7, 1.2030609999783337, 0, , , 6.000000, 92.000000, 2.000000,3.000000,1.000000,6.000000,0.500000,1.000000
17, test, 7, probe, 14, 2, 4, 4, 2, 0.4, 0.7, right, 2, 0.3, 0.4, 0.6, 0.7, 0.9811946999980137, 0, 65.33859252929688, 1.5999569999985397, 6.000000, 92.000000, 3.000000,3.000000,1.000000,6.000000,0.500000,1.000000
17, test, 7, no_probe, 15, 2, 4, 4, 2, 0.4, 0.7, right, 2, 0.3, 0.4, 0.6, 0.7, 1.4901887000305578, 0, , , 6.000000, 92.000000, 1.000000,3.000000,1.000000,6.000000,0.500000,1.000000
17, test, 7, no_probe, 16, 2, 3, 3, 2, 0.4, 0.6, right, 2, 0.3, 0.4, 0.6, 0.7, 0.9310464999871328, 1, , , 7.000000, 93.000000, 2.000000,3.000000,1.000000,6.000000,0.500000,1.000000
17, test, 7, probe, 17, 2, 3, 2, 3, 0.4, 0.6, left, 1, 0.3, 0.4, 0.6, 0.7, 0.786956200026907, 1, 59.716949462890625, 1.5166444000788033, 8.000000, 94.000000, 3.000000,3.000000,1.000000,6.000000,0.500000,1.000000
17, test, 7, no_probe, 18, 4, 3, 4, 3, 0.7, 0.6, left, 1, 0.3, 0.4, 0.6, 0.7, 0.4754745000973344, 1, , , 9.000000, 95.000000, 1.000000,3.000000,1.000000,6.000000,0.500000,1.000000
17, test, 7, no_probe, 19, 4, 3, 4, 3, 0.7, 0.6, left, 1, 0.3, 0.4, 0.6, 0.7, 0.8942317999899387, 1, , , 10.000000, 96.000000, 2.000000,3.000000,1.000000,6.000000,0.500000,1.000000
17, test, 7, probe, 20, 3, 1, 3, 1, 0.6, 0.3, left, 1, 0.3, 0.4, 0.6, 0.7, 1.6878037999849766, 1, 66.99996948242188, 1.1666753999888897, 11.000000, 97.000000, 3.000000,3.000000,1.000000,6.000000,0.500000,1.000000
17, test, 7, no_probe, 21, 4, 2, 4, 2, 0.7, 0.4, left, 1, 0.3, 0.4, 0.6, 0.7, 1.0307757999980822, 1, , , 12.000000, 98.000000, 1.000000,3.000000,1.000000,6.000000,0.500000,1.000000
17, test, 7, no_probe, 22, 4, 2, 4, 2, 0.7, 0.4, left, 1, 0.3, 0.4, 0.6, 0.7, 0.6785148000344634, 1, , , 13.000000, 99.000000, 2.000000,3.000000,1.000000,6.000000,0.500000,1.000000
17, test, 7, probe, 23, 2, 1, 2, 1, 0.4, 0.3, left, 1, 0.3, 0.4, 0.6, 0.7, 1.2852484999457374, 0, 78.70147705078125, 2.233304599998519, 13.000000, 99.000000, 3.000000,3.000000,1.000000,6.000000,0.500000,1.000000
17, test, 7, no_probe, 24, 1, 2, 1, 2, 0.3, 0.4, left, 1, 0.3, 0.4, 0.6, 0.7, 1.2752379999728873, 0, , , 13.000000, 99.000000, 1.000000,3.000000,1.000000,6.000000,0.500000,1.000000
17, test, 7, no_probe, 25, 2, 3, 3, 2, 0.4, 0.6, right, 2, 0.3, 0.4, 0.6, 0.7, 0.8237645999761298, 0, , , 13.000000, 99.000000, 2.000000,3.000000,1.000000,6.000000,0.500000,1.000000
17, test, 8, no_probe, 1, 4, 2, 4, 2, 0.7, 0.4, left, 1, 0.3, 0.4, 0.6, 0.7, 0.9185873999958858, 1, , , 1.000000, 100.000000, 1.000000,2.000000,1.000000,6.000000,0.500000,1.000000
17, test, 8, probe, 2, 1, 4, 4, 1, 0.3, 0.7, right, 2, 0.3, 0.4, 0.6, 0.7, 0.9399320000084117, 0, 68.27032470703125, 4.0999603000236675, 1.000000, 100.000000, 2.000000,2.000000,1.000000,6.000000,0.500000,1.000000
17, test, 8, no_probe, 3, 3, 4, 3, 4, 0.6, 0.7, left, 1, 0.3, 0.4, 0.6, 0.7, 1.2651435000589117, 1, , , 2.000000, 101.000000, 1.000000,2.000000,1.000000,6.000000,0.500000,1.000000
17, test, 8, probe, 4, 4, 2, 2, 4, 0.7, 0.4, right, 2, 0.3, 0.4, 0.6, 0.7, 1.7047055000439286, 1, 67.27008056640625, 2.749928499921225, 3.000000, 102.000000, 2.000000,2.000000,1.000000,6.000000,0.500000,1.000000
17, test, 8, no_probe, 5, 1, 3, 1, 3, 0.3, 0.6, left, 1, 0.3, 0.4, 0.6, 0.7, 2.747759700054303, 0, , , 3.000000, 102.000000, 1.000000,2.000000,1.000000,6.000000,0.500000,1.000000
17, test, 8, probe, 6, 1, 2, 2, 1, 0.3, 0.4, right, 2, 0.3, 0.4, 0.6, 0.7, 2.486123500042595, 0, 67.7803955078125, 1.5333062999416143, 3.000000, 102.000000, 2.000000,2.000000,1.000000,6.000000,0.500000,1.000000
17, test, 8, no_probe, 7, 4, 2, 4, 2, 0.7, 0.4, left, 1, 0.3, 0.4, 0.6, 0.7, 1.0135051000397652, 1, , , 4.000000, 103.000000, 1.000000,3.000000,1.000000,6.000000,0.500000,1.000000
17, test, 8, no_probe, 8, 3, 4, 4, 3, 0.6, 0.7, right, 2, 0.3, 0.4, 0.6, 0.7, 0.7736536000156775, 0, , , 4.000000, 103.000000, 2.000000,3.000000,1.000000,6.000000,0.500000,1.000000
17, test, 8, probe, 9, 4, 2, 2, 4, 0.7, 0.4, right, 2, 0.3, 0.4, 0.6, 0.7, 1.0524535999866202, 1, 55.929290771484375, 1.9166668000398204, 5.000000, 104.000000, 3.000000,3.000000,1.000000,6.000000,0.500000,1.000000
17, test, 8, no_probe, 10, 1, 4, 1, 4, 0.3, 0.7, left, 1, 0.3, 0.4, 0.6, 0.7, 1.2944320999085903, 0, , , 5.000000, 104.000000, 1.000000,3.000000,1.000000,6.000000,0.500000,1.000000
17, test, 8, no_probe, 11, 3, 2, 2, 3, 0.6, 0.4, right, 2, 0.3, 0.4, 0.6, 0.7, 0.730895800050348, 1, , , 6.000000, 105.000000, 2.000000,3.000000,1.000000,6.000000,0.500000,1.000000
17, test, 8, probe, 12, 4, 1, 4, 1, 0.7, 0.3, left, 1, 0.3, 0.4, 0.6, 0.7, 1.2843683999963105, 0, 66.80715942382812, 2.0333114000968635, 6.000000, 105.000000, 3.000000,3.000000,1.000000,6.000000,0.500000,1.000000
17, test, 8, no_probe, 13, 3, 1, 3, 1, 0.6, 0.3, left, 1, 0.3, 0.4, 0.6, 0.7, 1.2474548000609502, 1, , , 7.000000, 106.000000, 1.000000,3.000000,1.000000,6.000000,0.500000,1.000000
17, test, 8, no_probe, 14, 3, 4, 4, 3, 0.6, 0.7, right, 2, 0.3, 0.4, 0.6, 0.7, 0.9538941000355408, 0, , , 7.000000, 106.000000, 2.000000,3.000000,1.000000,6.000000,0.500000,1.000000
17, test, 8, probe, 15, 3, 1, 1, 3, 0.6, 0.3, right, 2, 0.3, 0.4, 0.6, 0.7, 1.0654763000784442, 1, 64.75567626953125, 2.283287400030531, 8.000000, 107.000000, 3.000000,3.000000,1.000000,6.000000,0.500000,1.000000
17, test, 8, no_probe, 16, 4, 2, 2, 4, 0.7, 0.4, right, 2, 0.3, 0.4, 0.6, 0.7, 0.7758224999997765, 1, , , 9.000000, 108.000000, 1.000000,3.000000,1.000000,6.000000,0.500000,1.000000
17, test, 8, no_probe, 17, 1, 2, 2, 1, 0.3, 0.4, right, 2, 0.3, 0.4, 0.6, 0.7, 1.9388132999883965, 0, , , 9.000000, 108.000000, 2.000000,3.000000,1.000000,6.000000,0.500000,1.000000
17, test, 8, probe, 18, 4, 1, 1, 4, 0.7, 0.3, right, 2, 0.3, 0.4, 0.6, 0.7, 1.1831655000569299, 1, 61.4307861328125, 1.199988399981521, 10.000000, 109.000000, 3.000000,3.000000,1.000000,6.000000,0.500000,1.000000
17, test, 8, no_probe, 19, 2, 1, 1, 2, 0.4, 0.3, right, 2, 0.3, 0.4, 0.6, 0.7, 1.615292500006035, 0, , , 10.000000, 109.000000, 1.000000,3.000000,1.000000,6.000000,0.500000,1.000000
17, test, 8, no_probe, 20, 3, 1, 3, 1, 0.6, 0.3, left, 1, 0.3, 0.4, 0.6, 0.7, 0.9170532000716776, 1, , , 11.000000, 110.000000, 2.000000,3.000000,1.000000,6.000000,0.500000,1.000000
17, test, 8, probe, 21, 4, 1, 4, 1, 0.7, 0.3, left, 1, 0.3, 0.4, 0.6, 0.7, 0.5895344000309706, 0, 58.112457275390625, 1.150037300074473, 11.000000, 110.000000, 3.000000,3.000000,1.000000,6.000000,0.500000,1.000000
17, test, 8, no_probe, 22, 3, 4, 3, 4, 0.6, 0.7, left, 1, 0.3, 0.4, 0.6, 0.7, 1.288282599998638, 1, , , 12.000000, 111.000000, 1.000000,2.000000,1.000000,6.000000,0.500000,1.000000
17, test, 8, probe, 23, 3, 2, 2, 3, 0.6, 0.4, right, 2, 0.3, 0.4, 0.6, 0.7, 0.6090574999107048, 0, 65.72210693359375, 1.383221400086768, 12.000000, 111.000000, 2.000000,2.000000,1.000000,6.000000,0.500000,1.000000
17, test, 8, no_probe, 24, 3, 4, 3, 4, 0.6, 0.7, left, 1, 0.3, 0.4, 0.6, 0.7, 0.6697225000243634, 0, , , 12.000000, 111.000000, 1.000000,2.000000,1.000000,6.000000,0.500000,1.000000
17, test, 8, probe, 25, 4, 1, 1, 4, 0.7, 0.3, right, 2, 0.3, 0.4, 0.6, 0.7, 0.6604349999688566, 0, 56.365203857421875, 1.2333279999438673, 12.000000, 111.000000, 2.000000,2.000000,1.000000,6.000000,0.500000,1.000000
