subject, block_type, block, thought probe, trial, chosen, unchosen, offer_left_image, offer_right_image, exp_value_chosen, exp_value_unchosen, choice_location, choice_key, exp_value1, exp_value2, exp_value3, exp_value4, RT, reward, vas, RT_vas, coins_per_block, coins_per_task, count_to_prob, ntrial_to_prob, ITI_duration,RT_deadline,choice_feedback_duration,outcome_duration
9, test, 1, no_probe, 1, 2, 4, 2, 4, 0.4, 0.7, left, 1, 0.3, 0.4, 0.6, 0.7, 0.9786427000071853, 0, , , 0.000000, 0.000000, 1.000000,2.000000,1.000000,6.000000,0.500000,1.000000
9, test, 1, probe, 2, 3, 1, 1, 3, 0.6, 0.3, right, 2, 0.3, 0.4, 0.6, 0.7, 1.1176496997941285, 1, 99.99960327148438, 3.349951999960467, 1.000000, 1.000000, 2.000000,2.000000,1.000000,6.000000,0.500000,1.000000
9, test, 1, no_probe, 3, 3, 2, 3, 2, 0.6, 0.4, left, 1, 0.3, 0.4, 0.6, 0.7, 1.0823911000043154, 0, , , 1.000000, 1.000000, 1.000000,2.000000,1.000000,6.000000,0.500000,1.000000
9, test, 1, probe, 4, 1, 2, 1, 2, 0.3, 0.4, left, 1, 0.3, 0.4, 0.6, 0.7, 1.2968965999316424, 0, 99.99972534179688, 2.166638200171292, 1.000000, 1.000000, 2.000000,2.000000,1.000000,6.000000,0.500000,1.000000
9, test, 1, no_probe, 5, 4, 2, 4, 2, 0.7, 0.4, left, 1, 0.3, 0.4, 0.6, 0.7, 0.9187183000613004, 1, , , 2.000000, 2.000000, 1.000000,2.000000,1.000000,6.000000,0.500000,1.000000
9, test, 1, probe, 6, 4, 1, 4, 1, 0.7, 0.3, left, 1, 0.3, 0.4, 0.6, 0.7, 1.0874401000328362, 1, 99.99972534179688, 1.6166409000288695, 3.000000, 3.000000, 2.000000,2.000000,1.000000,6.000000,0.500000,1.000000
9, test, 1, no_probe, 1, 1, 2, 1, 2, 0.3, 0.4, left, 1, 0.3, 0.4, 0.6, 0.7, 1.1187484001275152, 0, , , 0.000000, 3.000000, 1.000000,3.000000,1.000000,6.000000,0.500000,1.000000
9, test, 1, no_probe, 2, 4, 3, 4, 3, 0.7, 0.6, left, 1, 0.3, 0.4, 0.6, 0.7, 1.115445600124076, 0, , , 0.000000, 3.000000, 2.000000,3.000000,1.000000,6.000000,0.500000,1.000000
9, test, 1, probe, 3, 3, 2, 3, 2, 0.6, 0.4, left, 1, 0.3, 0.4, 0.6, 0.7, 1.9090088000521064, 1, 99.999755859375, 2.0662236001808196, 1.000000, 4.000000, 3.000000,3.000000,1.000000,6.000000,0.500000,1.000000
9, test, 1, no_probe, 4, 4, 1, 4, 1, 0.7, 0.3, left, 1, 0.3, 0.4, 0.6, 0.7, 1.2695650001987815, 1, , , 2.000000, 5.000000, 1.000000,3.000000,1.000000,6.000000,0.500000,1.000000
9, test, 1, no_probe, 5, 2, 1, 2, 1, 0.4, 0.3, left, 1, 0.3, 0.4, 0.6, 0.7, 1.9402590999379754, 1, , , 3.000000, 6.000000, 2.000000,3.000000,1.000000,6.000000,0.500000,1.000000
9, test, 1, probe, 6, 2, 1, 2, 1, 0.4, 0.3, left, 1, 0.3, 0.4, 0.6, 0.7, 0.8642033999785781, 1, 99.99981689453125, 1.7333099998068064, 4.000000, 7.000000, 3.000000,3.000000,1.000000,6.000000,0.500000,1.000000
9, test, 1, no_probe, 7, 4, 1, 1, 4, 0.7, 0.3, right, 2, 0.3, 0.4, 0.6, 0.7, 0.9085479001514614, 1, , , 5.000000, 8.000000, 1.000000,2.000000,1.000000,6.000000,0.500000,1.000000
9, test, 1, probe, 8, 2, 1, 2, 1, 0.4, 0.3, left, 1, 0.3, 0.4, 0.6, 0.7, 1.0618672999553382, 1, 99.99981689453125, 1.5166364000178874, 6.000000, 9.000000, 2.000000,2.000000,1.000000,6.000000,0.500000,1.000000
9, test, 1, no_probe, 9, 3, 2, 3, 2, 0.6, 0.4, left, 1, 0.3, 0.4, 0.6, 0.7, 1.4518380998633802, 0, , , 6.000000, 9.000000, 1.000000,3.000000,1.000000,6.000000,0.500000,1.000000
9, test, 1, no_probe, 10, 2, 4, 2, 4, 0.4, 0.7, left, 1, 0.3, 0.4, 0.6, 0.7, 1.4511996998917311, 0, , , 6.000000, 9.000000, 2.000000,3.000000,1.000000,6.000000,0.500000,1.000000
9, test, 1, probe, 11, 4, 1, 1, 4, 0.7, 0.3, right, 2, 0.3, 0.4, 0.6, 0.7, 0.7295077999588102, 1, 99.99978637695312, 1.2999985001515597, 7.000000, 10.000000, 3.000000,3.000000,1.000000,6.000000,0.500000,1.000000
9, test, 1, no_probe, 12, 2, 3, 3, 2, 0.4, 0.6, right, 2, 0.3, 0.4, 0.6, 0.7, 1.5970969998743385, 0, , , 7.000000, 10.000000, 1.000000,3.000000,1.000000,6.000000,0.500000,1.000000
9, test, 1, no_probe, 13, 3, 1, 3, 1, 0.6, 0.3, left, 1, 0.3, 0.4, 0.6, 0.7, 1.0818572000134736, 1, , , 8.000000, 11.000000, 2.000000,3.000000,1.000000,6.000000,0.500000,1.000000
9, test, 1, probe, 14, 4, 1, 1, 4, 0.7, 0.3, right, 2, 0.3, 0.4, 0.6, 0.7, 0.7201274000108242, 1, 99.9998779296875, 1.6166749000549316, 9.000000, 12.000000, 3.000000,3.000000,1.000000,6.000000,0.500000,1.000000
9, test, 1, no_probe, 15, 4, 2, 2, 4, 0.7, 0.4, right, 2, 0.3, 0.4, 0.6, 0.7, 2.23591069993563, 1, , , 10.000000, 13.000000, 1.000000,3.000000,1.000000,6.000000,0.500000,1.000000
9, test, 1, no_probe, 16, 4, 2, 2, 4, 0.7, 0.4, right, 2, 0.3, 0.4, 0.6, 0.7, 0.8430707999505103, 0, , , 10.000000, 13.000000, 2.000000,3.000000,1.000000,6.000000,0.500000,1.000000
9, test, 1, probe, 17, 3, 2, 3, 2, 0.6, 0.4, left, 1, 0.3, 0.4, 0.6, 0.7, 0.967762399930507, 1, 99.99771118164062, 3.033310799859464, 11.000000, 14.000000, 3.000000,3.000000,1.000000,6.000000,0.500000,1.000000
9, test, 1, no_probe, 18, 4, 2, 2, 4, 0.7, 0.4, right, 2, 0.3, 0.4, 0.6, 0.7, 2.7782588999252766, 1, , , 12.000000, 15.000000, 1.000000,3.000000,1.000000,6.000000,0.500000,1.000000
9, test, 1, no_probe, 19, 4, 2, 4, 2, 0.7, 0.4, left, 1, 0.3, 0.4, 0.6, 0.7, 0.4058016000781208, 1, , , 13.000000, 16.000000, 2.000000,3.000000,1.000000,6.000000,0.500000,1.000000
9, test, 1, probe, 20, 3, 2, 3, 2, 0.6, 0.4, left, 1, 0.3, 0.4, 0.6, 0.7, 0.7990047000348568, 0, 84.40139770507812, 1.1999784999061376, 13.000000, 16.000000, 3.000000,3.000000,1.000000,6.000000,0.500000,1.000000
9, test, 1, no_probe, 21, 4, 2, 4, 2, 0.7, 0.4, left, 1, 0.3, 0.4, 0.6, 0.7, 0.9034408999141306, 1, , , 14.000000, 17.000000, 1.000000,2.000000,1.000000,6.000000,0.500000,1.000000
9, test, 1, probe, 22, 4, 2, 4, 2, 0.7, 0.4, left, 1, 0.3, 0.4, 0.6, 0.7, 0.8871512999758124, 1, 99.99981689453125, 1.7832712999079376, 15.000000, 18.000000, 2.000000,2.000000,1.000000,6.000000,0.500000,1.000000
9, test, 1, no_probe, 23, 2, 1, 2, 1, 0.4, 0.3, left, 1, 0.3, 0.4, 0.6, 0.7, 0.8298855000175536, 1, , , 16.000000, 19.000000, 1.000000,2.000000,1.000000,6.000000,0.500000,1.000000
9, test, 1, probe, 24, 3, 1, 1, 3, 0.6, 0.3, right, 2, 0.3, 0.4, 0.6, 0.7, 0.7693878000136465, 1, 99.99984741210938, 1.5333177000284195, 17.000000, 20.000000, 2.000000,2.000000,1.000000,6.000000,0.500000,1.000000
9, test, 1, no_probe, 25, 3, 1, 1, 3, 0.6, 0.3, right, 2, 0.3, 0.4, 0.6, 0.7, 0.6301986000034958, 1, , , 18.000000, 21.000000, 1.000000,2.000000,1.000000,6.000000,0.500000,1.000000
9, test, 2, no_probe, 1, 4, 3, 3, 4, 0.7, 0.6, right, 2, 0.3, 0.4, 0.6, 0.7, 0.9102245999965817, 1, , , 1.000000, 22.000000, 1.000000,3.000000,1.000000,6.000000,0.500000,1.000000
9, test, 2, no_probe, 2, 4, 3, 4, 3, 0.7, 0.6, left, 1, 0.3, 0.4, 0.6, 0.7, 0.8351926999166608, 0, , , 1.000000, 22.000000, 2.000000,3.000000,1.000000,6.000000,0.500000,1.000000
9, test, 2, probe, 3, 2, 4, 2, 4, 0.4, 0.7, left, 1, 0.3, 0.4, 0.6, 0.7, 1.3962675998918712, 1, 99.99981689453125, 1.7829474001191556, 2.000000, 23.000000, 3.000000,3.000000,1.000000,6.000000,0.500000,1.000000
9, test, 2, no_probe, 4, 4, 3, 4, 3, 0.7, 0.6, left, 1, 0.3, 0.4, 0.6, 0.7, 1.6798264998942614, 1, , , 3.000000, 24.000000, 1.000000,2.000000,1.000000,6.000000,0.500000,1.000000
9, test, 2, probe, 5, 2, 4, 4, 2, 0.4, 0.7, right, 2, 0.3, 0.4, 0.6, 0.7, 0.9553487999364734, 0, 99.99978637695312, 1.6666311998851597, 3.000000, 24.000000, 2.000000,2.000000,1.000000,6.000000,0.500000,1.000000
9, test, 2, no_probe, 6, 4, 1, 4, 1, 0.7, 0.3, left, 1, 0.3, 0.4, 0.6, 0.7, 0.8304807001259178, 0, , , 3.000000, 24.000000, 1.000000,2.000000,1.000000,6.000000,0.500000,1.000000
9, test, 2, probe, 7, 3, 1, 1, 3, 0.6, 0.3, right, 2, 0.3, 0.4, 0.6, 0.7, 1.362435899907723, 0, 99.11947631835938, 1.4332937002182007, 3.000000, 24.000000, 2.000000,2.000000,1.000000,6.000000,0.500000,1.000000
9, test, 2, no_probe, 8, 2, 4, 2, 4, 0.4, 0.7, left, 1, 0.3, 0.4, 0.6, 0.7, 1.8182200998999178, 0, , , 3.000000, 24.000000, 1.000000,2.000000,1.000000,6.000000,0.500000,1.000000
9, test, 2, probe, 9, 1, 2, 1, 2, 0.3, 0.4, left, 1, 0.3, 0.4, 0.6, 0.7, 1.0869785998947918, 1, 85.9844970703125, 1.216600599931553, 4.000000, 25.000000, 2.000000,2.000000,1.000000,6.000000,0.500000,1.000000
9, test, 2, no_probe, 10, 1, 2, 1, 2, 0.3, 0.4, left, 1, 0.3, 0.4, 0.6, 0.7, 0.995365499984473, 1, , , 5.000000, 26.000000, 1.000000,3.000000,1.000000,6.000000,0.500000,1.000000
9, test, 2, no_probe, 11, 1, 3, 3, 1, 0.3, 0.6, right, 2, 0.3, 0.4, 0.6, 0.7, 0.5118825999088585, 0, , , 5.000000, 26.000000, 2.000000,3.000000,1.000000,6.000000,0.500000,1.000000
9, test, 2, probe, 12, 4, 3, 4, 3, 0.7, 0.6, left, 1, 0.3, 0.4, 0.6, 0.7, 1.4779129000380635, 0, 93.76284790039062, 1.3166810998227447, 5.000000, 26.000000, 3.000000,3.000000,1.000000,6.000000,0.500000,1.000000
9, test, 2, no_probe, 13, 3, 4, 3, 4, 0.6, 0.7, left, 1, 0.3, 0.4, 0.6, 0.7, 1.3214048999361694, 1, , , 6.000000, 27.000000, 1.000000,2.000000,1.000000,6.000000,0.500000,1.000000
9, test, 2, probe, 14, 4, 2, 2, 4, 0.7, 0.4, right, 2, 0.3, 0.4, 0.6, 0.7, 1.3862922000698745, 1, 99.99978637695312, 1.7333156999666244, 7.000000, 28.000000, 2.000000,2.000000,1.000000,6.000000,0.500000,1.000000
9, test, 2, no_probe, 15, 3, 2, 2, 3, 0.6, 0.4, right, 2, 0.3, 0.4, 0.6, 0.7, 1.7333402000367641, 0, , , 7.000000, 28.000000, 1.000000,3.000000,1.000000,6.000000,0.500000,1.000000
9, test, 2, no_probe, 16, 1, 2, 1, 2, 0.3, 0.4, left, 1, 0.3, 0.4, 0.6, 0.7, 0.5325917999725789, 1, , , 8.000000, 29.000000, 2.000000,3.000000,1.000000,6.000000,0.500000,1.000000
9, test, 2, probe, 17, 2, 4, 4, 2, 0.4, 0.7, right, 2, 0.3, 0.4, 0.6, 0.7, 0.9460465000011027, 0, 99.99984741210938, 1.5999572998844087, 8.000000, 29.000000, 3.000000,3.000000,1.000000,6.000000,0.500000,1.000000
9, test, 2, no_probe, 18, 1, 2, 1, 2, 0.3, 0.4, left, 1, 0.3, 0.4, 0.6, 0.7, 0.9314714998472482, 1, , , 9.000000, 30.000000, 1.000000,2.000000,1.000000,6.000000,0.500000,1.000000
9, test, 2, probe, 19, 3, 4, 4, 3, 0.6, 0.7, right, 2, 0.3, 0.4, 0.6, 0.7, 1.2361289002001286, 1, 99.99984741210938, 1.6333192000165582, 10.000000, 31.000000, 2.000000,2.000000,1.000000,6.000000,0.500000,1.000000
9, test, 2, no_probe, 20, 2, 3, 3, 2, 0.4, 0.6, right, 2, 0.3, 0.4, 0.6, 0.7, 2.272175299935043, 0, , , 10.000000, 31.000000, 1.000000,2.000000,1.000000,6.000000,0.500000,1.000000
9, test, 2, probe, 21, 1, 3, 3, 1, 0.3, 0.6, right, 2, 0.3, 0.4, 0.6, 0.7, 0.39585460000671446, 0, 99.29541015625, 1.5500392999965698, 10.000000, 31.000000, 2.000000,2.000000,1.000000,6.000000,0.500000,1.000000
9, test, 2, no_probe, 22, 3, 4, 4, 3, 0.6, 0.7, right, 2, 0.3, 0.4, 0.6, 0.7, 2.661816499894485, 1, , , 11.000000, 32.000000, 1.000000,2.000000,1.000000,6.000000,0.500000,1.000000
9, test, 2, probe, 23, 1, 4, 1, 4, 0.3, 0.7, left, 1, 0.3, 0.4, 0.6, 0.7, 0.42063939990475774, 1, 99.99981689453125, 2.0833058999851346, 12.000000, 33.000000, 2.000000,2.000000,1.000000,6.000000,0.500000,1.000000
9, test, 2, no_probe, 24, 1, 4, 4, 1, 0.3, 0.7, right, 2, 0.3, 0.4, 0.6, 0.7, 0.6835069998633116, 0, , , 12.000000, 33.000000, 1.000000,2.000000,1.000000,6.000000,0.500000,1.000000
9, test, 2, probe, 25, 4, 2, 4, 2, 0.7, 0.4, left, 1, 0.3, 0.4, 0.6, 0.7, 1.746650799876079, 1, 99.999755859375, 1.6833005000371486, 13.000000, 34.000000, 2.000000,2.000000,1.000000,6.000000,0.500000,1.000000
9, test, 3, no_probe, 1, 1, 4, 4, 1, 0.3, 0.7, right, 2, 0.3, 0.4, 0.6, 0.7, 1.4191341002006084, 1, , , 1.000000, 35.000000, 1.000000,3.000000,1.000000,6.000000,0.500000,1.000000
9, test, 3, no_probe, 2, 1, 2, 2, 1, 0.3, 0.4, right, 2, 0.3, 0.4, 0.6, 0.7, 0.8690969001036137, 0, , , 1.000000, 35.000000, 2.000000,3.000000,1.000000,6.000000,0.500000,1.000000
9, test, 3, probe, 3, 2, 4, 4, 2, 0.4, 0.7, right, 2, 0.3, 0.4, 0.6, 0.7, 0.6793625000864267, 0, 99.35580444335938, 1.6833397999871522, 1.000000, 35.000000, 3.000000,3.000000,1.000000,6.000000,0.500000,1.000000
9, test, 3, no_probe, 4, 2, 1, 2, 1, 0.4, 0.3, left, 1, 0.3, 0.4, 0.6, 0.7, 1.8014742000959814, 0, , , 1.000000, 35.000000, 1.000000,3.000000,1.000000,6.000000,0.500000,1.000000
9, test, 3, no_probe, 5, 2, 1, 2, 1, 0.4, 0.3, left, 1, 0.3, 0.4, 0.6, 0.7, 1.4139182998333126, 0, , , 1.000000, 35.000000, 2.000000,3.000000,1.000000,6.000000,0.500000,1.000000
9, test, 3, probe, 6, 1, 2, 2, 1, 0.3, 0.4, right, 2, 0.3, 0.4, 0.6, 0.7, 1.0179313998669386, 0, 48.481658935546875, 2.6666186000220478, 1.000000, 35.000000, 3.000000,3.000000,1.000000,6.000000,0.500000,1.000000
9, test, 3, no_probe, 7, 2, 4, 2, 4, 0.4, 0.7, left, 1, 0.3, 0.4, 0.6, 0.7, 1.7515295001212507, 0, , , 1.000000, 35.000000, 1.000000,3.000000,1.000000,6.000000,0.500000,1.000000
9, test, 3, no_probe, 8, 1, 4, 1, 4, 0.3, 0.7, left, 1, 0.3, 0.4, 0.6, 0.7, 1.8515532999299467, 0, , , 1.000000, 35.000000, 2.000000,3.000000,1.000000,6.000000,0.500000,1.000000
9, test, 3, probe, 9, 3, 2, 3, 2, 0.6, 0.4, left, 1, 0.3, 0.4, 0.6, 0.7, 0.8772976000327617, 1, 62.18023681640625, 2.4999428000301123, 2.000000, 36.000000, 3.000000,3.000000,1.000000,6.000000,0.500000,1.000000
9, test, 3, no_probe, 10, 3, 2, 3, 2, 0.6, 0.4, left, 1, 0.3, 0.4, 0.6, 0.7, 0.5601091000717133, 1, , , 3.000000, 37.000000, 1.000000,2.000000,1.000000,6.000000,0.500000,1.000000
9, test, 3, probe, 11, 1, 2, 2, 1, 0.3, 0.4, right, 2, 0.3, 0.4, 0.6, 0.7, 1.6829679999500513, 1, 99.99978637695312, 1.9333108998835087, 4.000000, 38.000000, 2.000000,2.000000,1.000000,6.000000,0.500000,1.000000
9, test, 3, no_probe, 12, 1, 2, 1, 2, 0.3, 0.4, left, 1, 0.3, 0.4, 0.6, 0.7, 2.0310555000323802, 0, , , 4.000000, 38.000000, 1.000000,2.000000,1.000000,6.000000,0.500000,1.000000
9, test, 3, probe, 13, 4, 2, 2, 4, 0.7, 0.4, right, 2, 0.3, 0.4, 0.6, 0.7, 1.5473741998430341, 1, 99.99978637695312, 1.5333236998412758, 5.000000, 39.000000, 2.000000,2.000000,1.000000,6.000000,0.500000,1.000000
9, test, 3, no_probe, 14, 2, 3, 3, 2, 0.4, 0.6, right, 2, 0.3, 0.4, 0.6, 0.7, 0.5270970999263227, 0, , , 5.000000, 39.000000, 1.000000,2.000000,1.000000,6.000000,0.500000,1.000000
9, test, 3, probe, 15, 2, 1, 1, 2, 0.4, 0.3, right, 2, 0.3, 0.4, 0.6, 0.7, 0.7826819000765681, 0, 99.51141357421875, 1.5666241999715567, 5.000000, 39.000000, 2.000000,2.000000,1.000000,6.000000,0.500000,1.000000
9, test, 3, no_probe, 16, 3, 4, 4, 3, 0.6, 0.7, right, 2, 0.3, 0.4, 0.6, 0.7, 1.6051452001556754, 1, , , 6.000000, 40.000000, 1.000000,2.000000,1.000000,6.000000,0.500000,1.000000
9, test, 3, probe, 17, 1, 4, 1, 4, 0.3, 0.7, left, 1, 0.3, 0.4, 0.6, 0.7, 2.3190160000231117, 0, 99.99981689453125, 1.6499532999005169, 6.000000, 40.000000, 2.000000,2.000000,1.000000,6.000000,0.500000,1.000000
9, test, 3, no_probe, 18, 4, 1, 4, 1, 0.7, 0.3, left, 1, 0.3, 0.4, 0.6, 0.7, 1.5092289000749588, 1, , , 7.000000, 41.000000, 1.000000,3.000000,1.000000,6.000000,0.500000,1.000000
9, test, 3, no_probe, 19, 3, 2, 2, 3, 0.6, 0.4, right, 2, 0.3, 0.4, 0.6, 0.7, 0.6384629001840949, 1, , , 8.000000, 42.000000, 2.000000,3.000000,1.000000,6.000000,0.500000,1.000000
9, test, 3, probe, 20, 2, 1, 2, 1, 0.4, 0.3, left, 1, 0.3, 0.4, 0.6, 0.7, 2.0216208999045193, 1, 99.99981689453125, 1.6166739000473171, 9.000000, 43.000000, 3.000000,3.000000,1.000000,6.000000,0.500000,1.000000
9, test, 3, no_probe, 21, 2, 1, 1, 2, 0.4, 0.3, right, 2, 0.3, 0.4, 0.6, 0.7, 1.028780500171706, 1, , , 10.000000, 44.000000, 1.000000,2.000000,1.000000,6.000000,0.500000,1.000000
9, test, 3, probe, 22, 3, 4, 3, 4, 0.6, 0.7, left, 1, 0.3, 0.4, 0.6, 0.7, 0.3291055001318455, 1, 99.9998779296875, 1.6333217998035252, 11.000000, 45.000000, 2.000000,2.000000,1.000000,6.000000,0.500000,1.000000
9, test, 3, no_probe, 23, 3, 2, 3, 2, 0.6, 0.4, left, 1, 0.3, 0.4, 0.6, 0.7, 0.5302516999654472, 1, , , 12.000000, 46.000000, 1.000000,2.000000,1.000000,6.000000,0.500000,1.000000
9, test, 3, probe, 24, 4, 2, 2, 4, 0.7, 0.4, right, 2, 0.3, 0.4, 0.6, 0.7, 2.8581725999247283, 0, 99.99981689453125, 1.449949499918148, 12.000000, 46.000000, 2.000000,2.000000,1.000000,6.000000,0.500000,1.000000
9, test, 3, no_probe, 25, 3, 2, 2, 3, 0.6, 0.4, right, 2, 0.3, 0.4, 0.6, 0.7, 0.6384403000120074, 0, , , 12.000000, 46.000000, 1.000000,2.000000,1.000000,6.000000,0.500000,1.000000
9, test, 4, no_probe, 1, 4, 2, 2, 4, 0.7, 0.4, right, 2, 0.3, 0.4, 0.6, 0.7, 0.4838731000199914, 1, , , 1.000000, 47.000000, 1.000000,2.000000,1.000000,6.000000,0.500000,1.000000
9, test, 4, probe, 2, 4, 3, 3, 4, 0.7, 0.6, right, 2, 0.3, 0.4, 0.6, 0.7, 1.2270867000333965, 1, 99.99972534179688, 1.7000150000676513, 2.000000, 48.000000, 2.000000,2.000000,1.000000,6.000000,0.500000,1.000000
9, test, 4, no_probe, 3, 3, 1, 3, 1, 0.6, 0.3, left, 1, 0.3, 0.4, 0.6, 0.7, 1.3425503000617027, 0, , , 2.000000, 48.000000, 1.000000,2.000000,1.000000,6.000000,0.500000,1.000000
9, test, 4, probe, 4, 4, 2, 4, 2, 0.7, 0.4, left, 1, 0.3, 0.4, 0.6, 0.7, 2.4733132000546902, 1, 99.999755859375, 1.5333443998824805, 3.000000, 49.000000, 2.000000,2.000000,1.000000,6.000000,0.500000,1.000000
9, test, 4, no_probe, 5, 2, 1, 2, 1, 0.4, 0.3, left, 1, 0.3, 0.4, 0.6, 0.7, 2.2467537000775337, 0, , , 3.000000, 49.000000, 1.000000,2.000000,1.000000,6.000000,0.500000,1.000000
9, test, 4, probe, 6, 4, 3, 4, 3, 0.7, 0.6, left, 1, 0.3, 0.4, 0.6, 0.7, 1.932988999877125, 1, 99.99978637695312, 1.5833159000612795, 4.000000, 50.000000, 2.000000,2.000000,1.000000,6.000000,0.500000,1.000000
9, test, 4, no_probe, 7, 4, 2, 2, 4, 0.7, 0.4, right, 2, 0.3, 0.4, 0.6, 0.7, 0.3640745999291539, 0, , , 4.000000, 50.000000, 1.000000,3.000000,1.000000,6.000000,0.500000,1.000000
9, test, 4, no_probe, 8, 4, 3, 4, 3, 0.7, 0.6, left, 1, 0.3, 0.4, 0.6, 0.7, 0.535537299932912, 1, , , 5.000000, 51.000000, 2.000000,3.000000,1.000000,6.000000,0.500000,1.000000
9, test, 4, probe, 9, 4, 3, 3, 4, 0.7, 0.6, right, 2, 0.3, 0.4, 0.6, 0.7, 0.37101510004140437, 1, 99.999755859375, 1.783288500038907, 6.000000, 52.000000, 3.000000,3.000000,1.000000,6.000000,0.500000,1.000000
9, test, 4, no_probe, 10, 4, 2, 4, 2, 0.7, 0.4, left, 1, 0.3, 0.4, 0.6, 0.7, 0.4585802999790758, 1, , , 7.000000, 53.000000, 1.000000,2.000000,1.000000,6.000000,0.500000,1.000000
9, test, 4, probe, 11, 4, 1, 4, 1, 0.7, 0.3, left, 1, 0.3, 0.4, 0.6, 0.7, 0.44126860005781054, 1, 99.99981689453125, 1.6500198000576347, 8.000000, 54.000000, 2.000000,2.000000,1.000000,6.000000,0.500000,1.000000
9, test, 4, no_probe, 12, 2, 3, 3, 2, 0.4, 0.6, right, 2, 0.3, 0.4, 0.6, 0.7, 2.0703781999181956, 1, , , 9.000000, 55.000000, 1.000000,3.000000,1.000000,6.000000,0.500000,1.000000
9, test, 4, no_probe, 13, 1, 3, 3, 1, 0.3, 0.6, right, 2, 0.3, 0.4, 0.6, 0.7, 1.2767429000232369, 1, , , 10.000000, 56.000000, 2.000000,3.000000,1.000000,6.000000,0.500000,1.000000
9, test, 4, probe, 14, 4, 1, 1, 4, 0.7, 0.3, right, 2, 0.3, 0.4, 0.6, 0.7, 0.5557442998979241, 1, 99.99978637695312, 1.48328600008972, 11.000000, 57.000000, 3.000000,3.000000,1.000000,6.000000,0.500000,1.000000
9, test, 4, no_probe, 15, 4, 1, 4, 1, 0.7, 0.3, left, 1, 0.3, 0.4, 0.6, 0.7, 0.32690500002354383, 0, , , 11.000000, 57.000000, 1.000000,3.000000,1.000000,6.000000,0.500000,1.000000
9, test, 4, no_probe, 16, 2, 3, 3, 2, 0.4, 0.6, right, 2, 0.3, 0.4, 0.6, 0.7, 0.9778517000377178, 1, , , 12.000000, 58.000000, 2.000000,3.000000,1.000000,6.000000,0.500000,1.000000
9, test, 4, probe, 17, 4, 3, 3, 4, 0.7, 0.6, right, 2, 0.3, 0.4, 0.6, 0.7, 0.445504599949345, 0, 99.999755859375, 1.7166263000108302, 12.000000, 58.000000, 3.000000,3.000000,1.000000,6.000000,0.500000,1.000000
9, test, 4, no_probe, 18, 2, 1, 1, 2, 0.4, 0.3, right, 2, 0.3, 0.4, 0.6, 0.7, 0.959520700154826, 1, , , 13.000000, 59.000000, 1.000000,2.000000,1.000000,6.000000,0.500000,1.000000
9, test, 4, probe, 19, 2, 1, 2, 1, 0.4, 0.3, left, 1, 0.3, 0.4, 0.6, 0.7, 0.7469893000088632, 1, 99.99978637695312, 1.6333086001686752, 14.000000, 60.000000, 2.000000,2.000000,1.000000,6.000000,0.500000,1.000000
9, test, 4, no_probe, 20, 2, 3, 2, 3, 0.4, 0.6, left, 1, 0.3, 0.4, 0.6, 0.7, 1.7277589000295848, 0, , , 14.000000, 60.000000, 1.000000,3.000000,1.000000,6.000000,0.500000,1.000000
9, test, 4, no_probe, 21, 2, 3, 2, 3, 0.4, 0.6, left, 1, 0.3, 0.4, 0.6, 0.7, 0.7388814999721944, 0, , , 14.000000, 60.000000, 2.000000,3.000000,1.000000,6.000000,0.500000,1.000000
9, test, 4, probe, 22, 4, 2, 4, 2, 0.7, 0.4, left, 1, 0.3, 0.4, 0.6, 0.7, 0.7192461001686752, 1, 99.99978637695312, 1.4499341999180615, 15.000000, 61.000000, 3.000000,3.000000,1.000000,6.000000,0.500000,1.000000
9, test, 4, no_probe, 23, 2, 1, 1, 2, 0.4, 0.3, right, 2, 0.3, 0.4, 0.6, 0.7, 1.0679603000171483, 1, , , 16.000000, 62.000000, 1.000000,2.000000,1.000000,6.000000,0.500000,1.000000
9, test, 4, probe, 24, 4, 1, 1, 4, 0.7, 0.3, right, 2, 0.3, 0.4, 0.6, 0.7, 0.5398715999908745, 0, 99.881103515625, 1.483320500003174, 16.000000, 62.000000, 2.000000,2.000000,1.000000,6.000000,0.500000,1.000000
9, test, 4, no_probe, 25, 2, 3, 3, 2, 0.4, 0.6, right, 2, 0.3, 0.4, 0.6, 0.7, 1.7066566001158208, 0, , , 16.000000, 62.000000, 1.000000,3.000000,1.000000,6.000000,0.500000,1.000000
9, test, 5, no_probe, 1, 4, 1, 4, 1, 0.7, 0.3, left, 1, 0.3, 0.4, 0.6, 0.7, 1.1332437999080867, 1, , , 1.000000, 63.000000, 1.000000,2.000000,1.000000,6.000000,0.500000,1.000000
9, test, 5, probe, 2, 4, 3, 3, 4, 0.7, 0.6, right, 2, 0.3, 0.4, 0.6, 0.7, 1.7847641000989825, 1, 99.99972534179688, 1.683306499850005, 2.000000, 64.000000, 2.000000,2.000000,1.000000,6.000000,0.500000,1.000000
9, test, 5, no_probe, 3, 4, 3, 4, 3, 0.7, 0.6, left, 1, 0.3, 0.4, 0.6, 0.7, 0.6378136998973787, 0, , , 2.000000, 64.000000, 1.000000,3.000000,1.000000,6.000000,0.500000,1.000000
9, test, 5, no_probe, 4, 4, 2, 4, 2, 0.7, 0.4, left, 1, 0.3, 0.4, 0.6, 0.7, 0.6899414998479187, 1, , , 3.000000, 65.000000, 2.000000,3.000000,1.000000,6.000000,0.500000,1.000000
9, test, 5, probe, 5, 3, 2, 2, 3, 0.6, 0.4, right, 2, 0.3, 0.4, 0.6, 0.7, 0.9774233000352979, 1, 99.99981689453125, 1.4666259000077844, 4.000000, 66.000000, 3.000000,3.000000,1.000000,6.000000,0.500000,1.000000
9, test, 5, no_probe, 6, 3, 4, 3, 4, 0.6, 0.7, left, 1, 0.3, 0.4, 0.6, 0.7, 0.4723314999137074, 1, , , 5.000000, 67.000000, 1.000000,3.000000,1.000000,6.000000,0.500000,1.000000
9, test, 5, no_probe, 7, 4, 2, 4, 2, 0.7, 0.4, left, 1, 0.3, 0.4, 0.6, 0.7, 0.6860236001666635, 0, , , 5.000000, 67.000000, 2.000000,3.000000,1.000000,6.000000,0.500000,1.000000
9, test, 5, probe, 8, 3, 1, 3, 1, 0.6, 0.3, left, 1, 0.3, 0.4, 0.6, 0.7, 1.540599400177598, 1, 99.99981689453125, 1.4666281000245363, 6.000000, 68.000000, 3.000000,3.000000,1.000000,6.000000,0.500000,1.000000
9, test, 5, no_probe, 9, 4, 1, 1, 4, 0.7, 0.3, right, 2, 0.3, 0.4, 0.6, 0.7, 1.1604243000037968, 1, , , 7.000000, 69.000000, 1.000000,2.000000,1.000000,6.000000,0.500000,1.000000
9, test, 5, probe, 10, 2, 4, 4, 2, 0.4, 0.7, right, 2, 0.3, 0.4, 0.6, 0.7, 1.121868799906224, 0, 99.99981689453125, 1.499927399912849, 7.000000, 69.000000, 2.000000,2.000000,1.000000,6.000000,0.500000,1.000000
9, test, 5, no_probe, 11, 3, 4, 3, 4, 0.6, 0.7, left, 1, 0.3, 0.4, 0.6, 0.7, 1.754208300029859, 1, , , 8.000000, 70.000000, 1.000000,2.000000,1.000000,6.000000,0.500000,1.000000
9, test, 5, probe, 12, 4, 2, 4, 2, 0.7, 0.4, left, 1, 0.3, 0.4, 0.6, 0.7, 1.5656002000905573, 0, 99.99984741210938, 2.0833364999853075, 8.000000, 70.000000, 2.000000,2.000000,1.000000,6.000000,0.500000,1.000000
9, test, 5, no_probe, 13, 2, 1, 1, 2, 0.4, 0.3, right, 2, 0.3, 0.4, 0.6, 0.7, 1.9114548000507057, 0, , , 8.000000, 70.000000, 1.000000,2.000000,1.000000,6.000000,0.500000,1.000000
9, test, 5, probe, 14, 3, 2, 2, 3, 0.6, 0.4, right, 2, 0.3, 0.4, 0.6, 0.7, 1.564888299908489, 1, 99.999755859375, 1.5499299999792129, 9.000000, 71.000000, 2.000000,2.000000,1.000000,6.000000,0.500000,1.000000
9, test, 5, no_probe, 15, 4, 1, 4, 1, 0.7, 0.3, left, 1, 0.3, 0.4, 0.6, 0.7, 4.407790700206533, 1, , , 10.000000, 72.000000, 1.000000,3.000000,1.000000,6.000000,0.500000,1.000000
9, test, 5, no_probe, 16, 3, 1, 1, 3, 0.6, 0.3, right, 2, 0.3, 0.4, 0.6, 0.7, 0.989172600209713, 1, , , 11.000000, 73.000000, 2.000000,3.000000,1.000000,6.000000,0.500000,1.000000
9, test, 5, probe, 17, 3, 1, 1, 3, 0.6, 0.3, right, 2, 0.3, 0.4, 0.6, 0.7, 0.4122468000277877, 0, 99.99972534179688, 1.6333182998932898, 11.000000, 73.000000, 3.000000,3.000000,1.000000,6.000000,0.500000,1.000000
9, test, 5, no_probe, 18, 3, 4, 3, 4, 0.6, 0.7, left, 1, 0.3, 0.4, 0.6, 0.7, 0.46168079995550215, 0, , , 11.000000, 73.000000, 1.000000,3.000000,1.000000,6.000000,0.500000,1.000000
9, test, 5, no_probe, 19, 3, 1, 3, 1, 0.6, 0.3, left, 1, 0.3, 0.4, 0.6, 0.7, 0.6039420999586582, 1, , , 12.000000, 74.000000, 2.000000,3.000000,1.000000,6.000000,0.500000,1.000000
9, test, 5, probe, 20, 2, 4, 4, 2, 0.4, 0.7, right, 2, 0.3, 0.4, 0.6, 0.7, 2.1225063998717815, 1, 99.999755859375, 1.4166655000299215, 13.000000, 75.000000, 3.000000,3.000000,1.000000,6.000000,0.500000,1.000000
9, test, 5, no_probe, 21, 1, 3, 1, 3, 0.3, 0.6, left, 1, 0.3, 0.4, 0.6, 0.7, 1.2839917000383139, 0, , , 13.000000, 75.000000, 1.000000,3.000000,1.000000,6.000000,0.500000,1.000000
9, test, 5, no_probe, 22, 4, 1, 4, 1, 0.7, 0.3, left, 1, 0.3, 0.4, 0.6, 0.7, 1.3941172000486404, 0, , , 13.000000, 75.000000, 2.000000,3.000000,1.000000,6.000000,0.500000,1.000000
9, test, 5, probe, 23, 3, 4, 4, 3, 0.6, 0.7, right, 2, 0.3, 0.4, 0.6, 0.7, 2.3120442000217736, 1, 99.99978637695312, 1.516613599844277, 14.000000, 76.000000, 3.000000,3.000000,1.000000,6.000000,0.500000,1.000000
9, test, 5, no_probe, 24, 4, 2, 4, 2, 0.7, 0.4, left, 1, 0.3, 0.4, 0.6, 0.7, 3.070968700107187, 1, , , 15.000000, 77.000000, 1.000000,2.000000,1.000000,6.000000,0.500000,1.000000
9, test, 5, probe, 25, 3, 4, 4, 3, 0.6, 0.7, right, 2, 0.3, 0.4, 0.6, 0.7, 1.829937200061977, 0, 99.99981689453125, 1.6999162998981774, 15.000000, 77.000000, 2.000000,2.000000,1.000000,6.000000,0.500000,1.000000
9, test, 6, no_probe, 1, 3, 2, 3, 2, 0.6, 0.4, left, 1, 0.3, 0.4, 0.6, 0.7, 0.9710316001437604, 1, , , 1.000000, 78.000000, 1.000000,3.000000,1.000000,6.000000,0.500000,1.000000
9, test, 6, no_probe, 2, 3, 2, 2, 3, 0.6, 0.4, right, 2, 0.3, 0.4, 0.6, 0.7, 1.0420534999575466, 1, , , 2.000000, 79.000000, 2.000000,3.000000,1.000000,6.000000,0.500000,1.000000
9, test, 6, probe, 3, 3, 1, 1, 3, 0.6, 0.3, right, 2, 0.3, 0.4, 0.6, 0.7, 1.4227366999257356, 1, 99.99981689453125, 1.5662179000210017, 3.000000, 80.000000, 3.000000,3.000000,1.000000,6.000000,0.500000,1.000000
9, test, 6, no_probe, 4, 3, 4, 4, 3, 0.6, 0.7, right, 2, 0.3, 0.4, 0.6, 0.7, 0.7601362999994308, 1, , , 4.000000, 81.000000, 1.000000,2.000000,1.000000,6.000000,0.500000,1.000000
9, test, 6, probe, 5, 3, 4, 3, 4, 0.6, 0.7, left, 1, 0.3, 0.4, 0.6, 0.7, 1.1071132998913527, 1, 99.99978637695312, 1.6666637000162154, 5.000000, 82.000000, 2.000000,2.000000,1.000000,6.000000,0.500000,1.000000
9, test, 6, no_probe, 6, 3, 2, 2, 3, 0.6, 0.4, right, 2, 0.3, 0.4, 0.6, 0.7, 2.0520625999197364, 1, , , 6.000000, 83.000000, 1.000000,3.000000,1.000000,6.000000,0.500000,1.000000
9, test, 6, no_probe, 7, 1, 3, 3, 1, 0.3, 0.6, right, 2, 0.3, 0.4, 0.6, 0.7, 1.9185669000726193, 0, , , 6.000000, 83.000000, 2.000000,3.000000,1.000000,6.000000,0.500000,1.000000
9, test, 6, probe, 8, 3, 2, 3, 2, 0.6, 0.4, left, 1, 0.3, 0.4, 0.6, 0.7, 0.560118000023067, 1, 99.99978637695312, 1.5666567001026124, 7.000000, 84.000000, 3.000000,3.000000,1.000000,6.000000,0.500000,1.000000
9, test, 6, no_probe, 9, 1, 4, 1, 4, 0.3, 0.7, left, 1, 0.3, 0.4, 0.6, 0.7, 1.591905300039798, 0, , , 7.000000, 84.000000, 1.000000,3.000000,1.000000,6.000000,0.500000,1.000000
9, test, 6, no_probe, 10, 1, 2, 1, 2, 0.3, 0.4, left, 1, 0.3, 0.4, 0.6, 0.7, 1.8928350999485701, 0, , , 7.000000, 84.000000, 2.000000,3.000000,1.000000,6.000000,0.500000,1.000000
9, test, 6, probe, 11, 4, 2, 4, 2, 0.7, 0.4, left, 1, 0.3, 0.4, 0.6, 0.7, 1.3002015999518335, 1, 97.64190673828125, 1.2999935999978334, 8.000000, 85.000000, 3.000000,3.000000,1.000000,6.000000,0.500000,1.000000
9, test, 6, no_probe, 12, 3, 2, 2, 3, 0.6, 0.4, right, 2, 0.3, 0.4, 0.6, 0.7, 0.9282438999507576, 0, , , 8.000000, 85.000000, 1.000000,2.000000,1.000000,6.000000,0.500000,1.000000
9, test, 6, probe, 13, 4, 2, 2, 4, 0.7, 0.4, right, 2, 0.3, 0.4, 0.6, 0.7, 1.1122884000651538, 0, 99.99981689453125, 1.5166704999282956, 8.000000, 85.000000, 2.000000,2.000000,1.000000,6.000000,0.500000,1.000000
9, test, 6, no_probe, 14, 2, 4, 2, 4, 0.4, 0.7, left, 1, 0.3, 0.4, 0.6, 0.7, 1.9512515999376774, 0, , , 8.000000, 85.000000, 1.000000,2.000000,1.000000,6.000000,0.500000,1.000000
9, test, 6, probe, 15, 3, 4, 3, 4, 0.6, 0.7, left, 1, 0.3, 0.4, 0.6, 0.7, 0.6342182999942452, 1, 99.99978637695312, 1.283304400043562, 9.000000, 86.000000, 2.000000,2.000000,1.000000,6.000000,0.500000,1.000000
9, test, 6, no_probe, 16, 2, 1, 1, 2, 0.4, 0.3, right, 2, 0.3, 0.4, 0.6, 0.7, 2.129050200106576, 0, , , 9.000000, 86.000000, 1.000000,3.000000,1.000000,6.000000,0.500000,1.000000
9, test, 6, no_probe, 17, 2, 4, 4, 2, 0.4, 0.7, right, 2, 0.3, 0.4, 0.6, 0.7, 0.7090712999925017, 0, , , 9.000000, 86.000000, 2.000000,3.000000,1.000000,6.000000,0.500000,1.000000
9, test, 6, probe, 18, 3, 1, 3, 1, 0.6, 0.3, left, 1, 0.3, 0.4, 0.6, 0.7, 0.7836829000152647, 1, 50.131439208984375, 0.9833076999057084, 10.000000, 87.000000, 3.000000,3.000000,1.000000,6.000000,0.500000,1.000000
9, test, 6, no_probe, 19, 2, 4, 2, 4, 0.4, 0.7, left, 1, 0.3, 0.4, 0.6, 0.7, 2.183534299954772, 0, , , 10.000000, 87.000000, 1.000000,2.000000,1.000000,6.000000,0.500000,1.000000
9, test, 6, probe, 20, 3, 1, 1, 3, 0.6, 0.3, right, 2, 0.3, 0.4, 0.6, 0.7, 0.6415053999517113, 1, 51.9617919921875, 3.049960099859163, 11.000000, 88.000000, 2.000000,2.000000,1.000000,6.000000,0.500000,1.000000
9, test, 6, no_probe, 21, 4, 1, 4, 1, 0.7, 0.3, left, 1, 0.3, 0.4, 0.6, 0.7, 1.475275499979034, 0, , , 11.000000, 88.000000, 1.000000,2.000000,1.000000,6.000000,0.500000,1.000000
9, test, 6, probe, 22, 2, 1, 2, 1, 0.4, 0.3, left, 1, 0.3, 0.4, 0.6, 0.7, 1.2546510000247508, 1, 49.997528076171875, 1.3499674999620765, 12.000000, 89.000000, 2.000000,2.000000,1.000000,6.000000,0.500000,1.000000
9, test, 6, no_probe, 23, 2, 4, 4, 2, 0.4, 0.7, right, 2, 0.3, 0.4, 0.6, 0.7, 3.756894800113514, 0, , , 12.000000, 89.000000, 1.000000,3.000000,1.000000,6.000000,0.500000,1.000000
9, test, 6, no_probe, 24, 4, 2, 2, 4, 0.7, 0.4, right, 2, 0.3, 0.4, 0.6, 0.7, 1.7892349001485854, 0, , , 12.000000, 89.000000, 2.000000,3.000000,1.000000,6.000000,0.500000,1.000000
9, test, 6, probe, 25, 3, 4, 3, 4, 0.6, 0.7, left, 1, 0.3, 0.4, 0.6, 0.7, 0.47886899998411536, 1, 49.99847412109375, 0.8333324000705034, 13.000000, 90.000000, 3.000000,3.000000,1.000000,6.000000,0.500000,1.000000
9, test, 7, no_probe, 1, 4, 3, 3, 4, 0.7, 0.6, right, 2, 0.3, 0.4, 0.6, 0.7, 1.3295680000446737, 1, , , 1.000000, 91.000000, 1.000000,3.000000,1.000000,6.000000,0.500000,1.000000
9, test, 7, no_probe, 2, 4, 3, 3, 4, 0.7, 0.6, right, 2, 0.3, 0.4, 0.6, 0.7, 1.256709499983117, 0, , , 1.000000, 91.000000, 2.000000,3.000000,1.000000,6.000000,0.500000,1.000000
9, test, 7, probe, 3, 1, 3, 1, 3, 0.3, 0.6, left, 1, 0.3, 0.4, 0.6, 0.7, 1.1683076999615878, 1, 99.99981689453125, 1.666254699928686, 2.000000, 92.000000, 3.000000,3.000000,1.000000,6.000000,0.500000,1.000000
9, test, 7, no_probe, 4, 4, 1, 4, 1, 0.7, 0.3, left, 1, 0.3, 0.4, 0.6, 0.7, 0.8347018000204116, 0, , , 2.000000, 92.000000, 1.000000,2.000000,1.000000,6.000000,0.500000,1.000000
9, test, 7, probe, 5, 4, 1, 4, 1, 0.7, 0.3, left, 1, 0.3, 0.4, 0.6, 0.7, 1.2757234999444336, 1, 99.999755859375, 1.4166174998972565, 3.000000, 93.000000, 2.000000,2.000000,1.000000,6.000000,0.500000,1.000000
9, test, 7, no_probe, 6, 4, 3, 4, 3, 0.7, 0.6, left, 1, 0.3, 0.4, 0.6, 0.7, 1.8327693999744952, 1, , , 4.000000, 94.000000, 1.000000,2.000000,1.000000,6.000000,0.500000,1.000000
9, test, 7, probe, 7, 1, 2, 1, 2, 0.3, 0.4, left, 1, 0.3, 0.4, 0.6, 0.7, 2.300551800057292, 0, 99.99978637695312, 1.2999960999004543, 4.000000, 94.000000, 2.000000,2.000000,1.000000,6.000000,0.500000,1.000000
9, test, 7, no_probe, 8, 3, 2, 3, 2, 0.6, 0.4, left, 1, 0.3, 0.4, 0.6, 0.7, 1.191631100140512, 0, , , 4.000000, 94.000000, 1.000000,3.000000,1.000000,6.000000,0.500000,1.000000
9, test, 7, no_probe, 9, 4, 1, 4, 1, 0.7, 0.3, left, 1, 0.3, 0.4, 0.6, 0.7, 2.7110648001544178, 1, , , 5.000000, 95.000000, 2.000000,3.000000,1.000000,6.000000,0.500000,1.000000
9, test, 7, probe, 10, 1, 4, 4, 1, 0.3, 0.7, right, 2, 0.3, 0.4, 0.6, 0.7, 0.44867139984853566, 1, 99.99981689453125, 1.399958600057289, 6.000000, 96.000000, 3.000000,3.000000,1.000000,6.000000,0.500000,1.000000
9, test, 7, no_probe, 11, 2, 1, 2, 1, 0.4, 0.3, left, 1, 0.3, 0.4, 0.6, 0.7, 1.305602899985388, 1, , , 7.000000, 97.000000, 1.000000,3.000000,1.000000,6.000000,0.500000,1.000000
9, test, 7, no_probe, 12, 4, 2, 4, 2, 0.7, 0.4, left, 1, 0.3, 0.4, 0.6, 0.7, 2.1116272998042405, 1, , , 8.000000, 98.000000, 2.000000,3.000000,1.000000,6.000000,0.500000,1.000000
9, test, 7, probe, 13, 3, 2, 3, 2, 0.6, 0.4, left, 1, 0.3, 0.4, 0.6, 0.7, 2.5031910999678075, 1, 99.99978637695312, 1.7500293001066893, 9.000000, 99.000000, 3.000000,3.000000,1.000000,6.000000,0.500000,1.000000
9, test, 7, no_probe, 14, 2, 3, 3, 2, 0.4, 0.6, right, 2, 0.3, 0.4, 0.6, 0.7, 0.7307696000207216, 1, , , 10.000000, 100.000000, 1.000000,2.000000,1.000000,6.000000,0.500000,1.000000
9, test, 7, probe, 15, 4, 1, 1, 4, 0.7, 0.3, right, 2, 0.3, 0.4, 0.6, 0.7, 2.190570600097999, 1, 99.99978637695312, 1.6332798001822084, 11.000000, 101.000000, 2.000000,2.000000,1.000000,6.000000,0.500000,1.000000
9, test, 7, no_probe, 16, 2, 3, 3, 2, 0.4, 0.6, right, 2, 0.3, 0.4, 0.6, 0.7, 3.3978782000485808, 1, , , 12.000000, 102.000000, 1.000000,2.000000,1.000000,6.000000,0.500000,1.000000
9, test, 7, probe, 17, 2, 1, 2, 1, 0.4, 0.3, left, 1, 0.3, 0.4, 0.6, 0.7, 1.5220967999193817, 1, 99.99981689453125, 1.3166270998772234, 13.000000, 103.000000, 2.000000,2.000000,1.000000,6.000000,0.500000,1.000000
9, test, 7, no_probe, 18, 3, 4, 3, 4, 0.6, 0.7, left, 1, 0.3, 0.4, 0.6, 0.7, 2.2011603000573814, 0, , , 13.000000, 103.000000, 1.000000,3.000000,1.000000,6.000000,0.500000,1.000000
9, test, 7, no_probe, 19, 3, 1, 1, 3, 0.6, 0.3, right, 2, 0.3, 0.4, 0.6, 0.7, 2.895093800034374, 0, , , 13.000000, 103.000000, 2.000000,3.000000,1.000000,6.000000,0.500000,1.000000
9, test, 7, probe, 20, 3, 1, 3, 1, 0.6, 0.3, left, 1, 0.3, 0.4, 0.6, 0.7, 2.8479868001304567, 0, 99.99984741210938, 1.5500114001333714, 13.000000, 103.000000, 3.000000,3.000000,1.000000,6.000000,0.500000,1.000000
9, test, 7, no_probe, 21, 1, 2, 2, 1, 0.3, 0.4, right, 2, 0.3, 0.4, 0.6, 0.7, 5.628331599989906, 0, , , 13.000000, 103.000000, 1.000000,2.000000,1.000000,6.000000,0.500000,1.000000
9, test, 7, probe, 22, 1, 2, 1, 2, 0.3, 0.4, left, 1, 0.3, 0.4, 0.6, 0.7, 3.3519219998270273, 1, 99.999755859375, 1.7333378000184894, 14.000000, 104.000000, 2.000000,2.000000,1.000000,6.000000,0.500000,1.000000
9, test, 7, no_probe, 23, 4, 3, 3, 4, 0.7, 0.6, right, 2, 0.3, 0.4, 0.6, 0.7, 1.364720999961719, 1, , , 15.000000, 105.000000, 1.000000,3.000000,1.000000,6.000000,0.500000,1.000000
9, test, 7, no_probe, 24, 1, 4, 1, 4, 0.3, 0.7, left, 1, 0.3, 0.4, 0.6, 0.7, 2.2240609999280423, 0, , , 15.000000, 105.000000, 2.000000,3.000000,1.000000,6.000000,0.500000,1.000000
9, test, 7, probe, 25, 2, 3, 3, 2, 0.4, 0.6, right, 2, 0.3, 0.4, 0.6, 0.7, 1.6206879999954253, 0, 49.99871826171875, 0.6999790000263602, 15.000000, 105.000000, 3.000000,3.000000,1.000000,6.000000,0.500000,1.000000
9, test, 8, no_probe, 1, 1, 4, 4, 1, 0.3, 0.7, right, 2, 0.3, 0.4, 0.6, 0.7, 1.1369759000372142, 0, , , 0.000000, 105.000000, 1.000000,2.000000,1.000000,6.000000,0.500000,1.000000
9, test, 8, probe, 2, 2, 4, 2, 4, 0.4, 0.7, left, 1, 0.3, 0.4, 0.6, 0.7, 2.691593300085515, 0, 49.998260498046875, 0.9499804999213666, 0.000000, 105.000000, 2.000000,2.000000,1.000000,6.000000,0.500000,1.000000
9, test, 8, no_probe, 3, 3, 1, 3, 1, 0.6, 0.3, left, 1, 0.3, 0.4, 0.6, 0.7, 1.0719554000534117, 0, , , 0.000000, 105.000000, 1.000000,3.000000,1.000000,6.000000,0.500000,1.000000
9, test, 8, no_probe, 4, 4, 3, 4, 3, 0.7, 0.6, left, 1, 0.3, 0.4, 0.6, 0.7, 1.6380539999809116, 1, , , 1.000000, 106.000000, 2.000000,3.000000,1.000000,6.000000,0.500000,1.000000
9, test, 8, probe, 5, 4, 3, 4, 3, 0.7, 0.6, left, 1, 0.3, 0.4, 0.6, 0.7, 0.4379549000877887, 0, 99.99984741210938, 1.8166260998696089, 1.000000, 106.000000, 3.000000,3.000000,1.000000,6.000000,0.500000,1.000000
9, test, 8, no_probe, 6, 3, 2, 3, 2, 0.6, 0.4, left, 1, 0.3, 0.4, 0.6, 0.7, 2.3594589999411255, 1, , , 2.000000, 107.000000, 1.000000,2.000000,1.000000,6.000000,0.500000,1.000000
9, test, 8, abort_trial, 7
9, test, 8, probe, 8, 1, 2, 2, 1, 0.3, 0.4, right, 2, 0.3, 0.4, 0.6, 0.7, 0.7617187001742423, 0, 51.6824951171875, 2.4333129001315683, 2.000000, 107.000000, 2.000000,2.000000,1.000000,6.000000,0.500000,1.000000
9, test, 8, no_probe, 9, 1, 4, 1, 4, 0.3, 0.7, left, 1, 0.3, 0.4, 0.6, 0.7, 0.9731688001193106, 1, , , 3.000000, 108.000000, 1.000000,2.000000,1.000000,6.000000,0.500000,1.000000
9, test, 8, probe, 10, 4, 1, 4, 1, 0.7, 0.3, left, 1, 0.3, 0.4, 0.6, 0.7, 1.1640035000164062, 1, 49.9979248046875, 1.1333228999283165, 4.000000, 109.000000, 2.000000,2.000000,1.000000,6.000000,0.500000,1.000000
9, test, 8, no_probe, 11, 4, 1, 1, 4, 0.7, 0.3, right, 2, 0.3, 0.4, 0.6, 0.7, 1.1970550001133233, 1, , , 5.000000, 110.000000, 1.000000,3.000000,1.000000,6.000000,0.500000,1.000000
9, test, 8, no_probe, 12, 2, 3, 3, 2, 0.4, 0.6, right, 2, 0.3, 0.4, 0.6, 0.7, 1.6743167999666184, 1, , , 6.000000, 111.000000, 2.000000,3.000000,1.000000,6.000000,0.500000,1.000000
9, test, 8, probe, 13, 1, 2, 1, 2, 0.3, 0.4, left, 1, 0.3, 0.4, 0.6, 0.7, 1.599572699982673, 0, 49.99737548828125, 1.4333292001392692, 6.000000, 111.000000, 3.000000,3.000000,1.000000,6.000000,0.500000,1.000000
9, test, 8, no_probe, 14, 2, 3, 3, 2, 0.4, 0.6, right, 2, 0.3, 0.4, 0.6, 0.7, 2.2471544998697937, 1, , , 7.000000, 112.000000, 1.000000,3.000000,1.000000,6.000000,0.500000,1.000000
9, test, 8, no_probe, 15, 2, 1, 1, 2, 0.4, 0.3, right, 2, 0.3, 0.4, 0.6, 0.7, 1.3501715001184493, 0, , , 7.000000, 112.000000, 2.000000,3.000000,1.000000,6.000000,0.500000,1.000000
9, test, 8, probe, 16, 2, 1, 2, 1, 0.4, 0.3, left, 1, 0.3, 0.4, 0.6, 0.7, 1.6265752001199871, 0, 49.9991455078125, 0.4666672998573631, 7.000000, 112.000000, 3.000000,3.000000,1.000000,6.000000,0.500000,1.000000
9, test, 8, no_probe, 17, 3, 4, 3, 4, 0.6, 0.7, left, 1, 0.3, 0.4, 0.6, 0.7, 1.8016761001199484, 1, , , 8.000000, 113.000000, 1.000000,3.000000,1.000000,6.000000,0.500000,1.000000
9, test, 8, no_probe, 18, 2, 1, 2, 1, 0.4, 0.3, left, 1, 0.3, 0.4, 0.6, 0.7, 1.7206600999925286, 1, , , 9.000000, 114.000000, 2.000000,3.000000,1.000000,6.000000,0.500000,1.000000
9, test, 8, probe, 19, 4, 1, 1, 4, 0.7, 0.3, right, 2, 0.3, 0.4, 0.6, 0.7, 2.373543299967423, 1, 70.9842529296875, 1.5166802001185715, 10.000000, 115.000000, 3.000000,3.000000,1.000000,6.000000,0.500000,1.000000
9, test, 8, no_probe, 20, 4, 3, 3, 4, 0.7, 0.6, right, 2, 0.3, 0.4, 0.6, 0.7, 1.6085278000682592, 0, , , 10.000000, 115.000000, 1.000000,2.000000,1.000000,6.000000,0.500000,1.000000
9, test, 8, probe, 21, 1, 4, 4, 1, 0.3, 0.7, right, 2, 0.3, 0.4, 0.6, 0.7, 1.9188832000363618, 0, 49.997344970703125, 1.4499732998665422, 10.000000, 115.000000, 2.000000,2.000000,1.000000,6.000000,0.500000,1.000000
9, test, 8, no_probe, 22, 4, 1, 4, 1, 0.7, 0.3, left, 1, 0.3, 0.4, 0.6, 0.7, 0.7913610998075455, 1, , , 11.000000, 116.000000, 1.000000,2.000000,1.000000,6.000000,0.500000,1.000000
9, test, 8, probe, 23, 1, 3, 3, 1, 0.3, 0.6, right, 2, 0.3, 0.4, 0.6, 0.7, 1.9591947000008076, 1, 49.998626708984375, 0.7500039001461118, 12.000000, 117.000000, 2.000000,2.000000,1.000000,6.000000,0.500000,1.000000
9, test, 8, no_probe, 24, 1, 4, 4, 1, 0.3, 0.7, right, 2, 0.3, 0.4, 0.6, 0.7, 1.3017997001297772, 1, , , 13.000000, 118.000000, 1.000000,3.000000,1.000000,6.000000,0.500000,1.000000
9, test, 8, no_probe, 25, 1, 3, 3, 1, 0.3, 0.6, right, 2, 0.3, 0.4, 0.6, 0.7, 1.1401519000064582, 0, , , 13.000000, 118.000000, 2.000000,3.000000,1.000000,6.000000,0.500000,1.000000
