subject, block_type, block, thought probe, trial, chosen, unchosen, offer_left_image, offer_right_image, exp_value_chosen, exp_value_unchosen, choice_location, choice_key, exp_value1, exp_value2, exp_value3, exp_value4, RT, reward, vas, RT_vas, coins_per_block, coins_per_task, count_to_prob, ntrial_to_prob, ITI_duration,RT_deadline,choice_feedback_duration,outcome_duration
6, test, 1, no_probe, 1, 3, 4, 3, 4, 0.6, 0.7, left, 1, 0.3, 0.4, 0.6, 0.7, 1.4896678000222892, 1, , , 1.000000, 1.000000, 1.000000,2.000000,1.000000,6.000000,0.500000,1.000000
6, test, 1, probe, 2, 3, 2, 2, 3, 0.6, 0.4, right, 2, 0.3, 0.4, 0.6, 0.7, 4.26281480002217, 1, 99.99545288085938, 6.549922900041565, 2.000000, 2.000000, 2.000000,2.000000,1.000000,6.000000,0.500000,1.000000
6, test, 1, no_probe, 3, 1, 2, 2, 1, 0.3, 0.4, right, 2, 0.3, 0.4, 0.6, 0.7, 3.328264399897307, 0, , , 2.000000, 2.000000, 1.000000,3.000000,1.000000,6.000000,0.500000,1.000000
6, test, 1, no_probe, 4, 4, 1, 4, 1, 0.7, 0.3, left, 1, 0.3, 0.4, 0.6, 0.7, 0.9131404999643564, 1, , , 3.000000, 3.000000, 2.000000,3.000000,1.000000,6.000000,0.500000,1.000000
6, test, 1, probe, 5, 1, 2, 1, 2, 0.3, 0.4, left, 1, 0.3, 0.4, 0.6, 0.7, 5.589775699889287, 0, 72.59814453125, 4.783225599909201, 3.000000, 3.000000, 3.000000,3.000000,1.000000,6.000000,0.500000,1.000000
6, test, 1, abort_trial, 6
6, test, 1, no_probe, 1, 2, 1, 1, 2, 0.4, 0.3, right, 2, 0.3, 0.4, 0.6, 0.7, 2.0475449000950903, 0, , , 0.000000, 3.000000, 1.000000,3.000000,1.000000,6.000000,0.500000,1.000000
6, test, 1, no_probe, 2, 4, 2, 4, 2, 0.7, 0.4, left, 1, 0.3, 0.4, 0.6, 0.7, 0.8389729999471456, 0, , , 0.000000, 3.000000, 2.000000,3.000000,1.000000,6.000000,0.500000,1.000000
6, test, 1, probe, 3, 3, 1, 1, 3, 0.6, 0.3, right, 2, 0.3, 0.4, 0.6, 0.7, 1.0380164000671357, 1, 90.43951416015625, 3.866219300078228, 1.000000, 4.000000, 3.000000,3.000000,1.000000,6.000000,0.500000,1.000000
6, test, 1, no_probe, 4, 1, 3, 3, 1, 0.3, 0.6, right, 2, 0.3, 0.4, 0.6, 0.7, 3.05462529999204, 0, , , 1.000000, 4.000000, 1.000000,2.000000,1.000000,6.000000,0.500000,1.000000
6, test, 1, probe, 5, 2, 1, 2, 1, 0.4, 0.3, left, 1, 0.3, 0.4, 0.6, 0.7, 1.7893540000077337, 1, 91.02874755859375, 3.4666315000504255, 2.000000, 5.000000, 2.000000,2.000000,1.000000,6.000000,0.500000,1.000000
6, test, 1, no_probe, 6, 3, 2, 3, 2, 0.6, 0.4, left, 1, 0.3, 0.4, 0.6, 0.7, 1.9716100001242012, 0, , , 2.000000, 5.000000, 1.000000,3.000000,1.000000,6.000000,0.500000,1.000000
6, test, 1, no_probe, 7, 1, 3, 1, 3, 0.3, 0.6, left, 1, 0.3, 0.4, 0.6, 0.7, 1.3974145001266152, 1, , , 3.000000, 6.000000, 2.000000,3.000000,1.000000,6.000000,0.500000,1.000000
6, test, 1, probe, 8, 1, 4, 4, 1, 0.3, 0.7, right, 2, 0.3, 0.4, 0.6, 0.7, 2.5031202998943627, 0, 62.975311279296875, 2.683293499983847, 3.000000, 6.000000, 3.000000,3.000000,1.000000,6.000000,0.500000,1.000000
6, test, 1, no_probe, 9, 4, 1, 4, 1, 0.7, 0.3, left, 1, 0.3, 0.4, 0.6, 0.7, 1.6891167999710888, 1, , , 4.000000, 7.000000, 1.000000,2.000000,1.000000,6.000000,0.500000,1.000000
6, test, 1, probe, 10, 4, 1, 1, 4, 0.7, 0.3, right, 2, 0.3, 0.4, 0.6, 0.7, 0.7496607999783009, 0, 71.96441650390625, 2.8999330999795347, 4.000000, 7.000000, 2.000000,2.000000,1.000000,6.000000,0.500000,1.000000
6, test, 1, no_probe, 11, 2, 4, 4, 2, 0.4, 0.7, right, 2, 0.3, 0.4, 0.6, 0.7, 2.1966230999678373, 1, , , 5.000000, 8.000000, 1.000000,2.000000,1.000000,6.000000,0.500000,1.000000
6, test, 1, probe, 12, 3, 4, 3, 4, 0.6, 0.7, left, 1, 0.3, 0.4, 0.6, 0.7, 2.157462799921632, 0, 76.79489135742188, 3.1832931998651475, 5.000000, 8.000000, 2.000000,2.000000,1.000000,6.000000,0.500000,1.000000
6, test, 1, no_probe, 13, 4, 3, 3, 4, 0.7, 0.6, right, 2, 0.3, 0.4, 0.6, 0.7, 1.528007899876684, 1, , , 6.000000, 9.000000, 1.000000,2.000000,1.000000,6.000000,0.500000,1.000000
6, test, 1, probe, 14, 2, 3, 2, 3, 0.4, 0.6, left, 1, 0.3, 0.4, 0.6, 0.7, 1.4287761999294162, 0, 82.52166748046875, 3.5166134999599308, 6.000000, 9.000000, 2.000000,2.000000,1.000000,6.000000,0.500000,1.000000
6, test, 1, no_probe, 15, 2, 3, 2, 3, 0.4, 0.6, left, 1, 0.3, 0.4, 0.6, 0.7, 2.246741299983114, 1, , , 7.000000, 10.000000, 1.000000,3.000000,1.000000,6.000000,0.500000,1.000000
6, test, 1, no_probe, 16, 4, 1, 1, 4, 0.7, 0.3, right, 2, 0.3, 0.4, 0.6, 0.7, 1.9178470999468118, 1, , , 8.000000, 11.000000, 2.000000,3.000000,1.000000,6.000000,0.500000,1.000000
6, test, 1, probe, 17, 4, 3, 3, 4, 0.7, 0.6, right, 2, 0.3, 0.4, 0.6, 0.7, 3.542133699869737, 1, 89.03680419921875, 2.249968499876559, 9.000000, 12.000000, 3.000000,3.000000,1.000000,6.000000,0.500000,1.000000
6, test, 1, no_probe, 18, 4, 3, 4, 3, 0.7, 0.6, left, 1, 0.3, 0.4, 0.6, 0.7, 1.0508942999877036, 1, , , 10.000000, 13.000000, 1.000000,2.000000,1.000000,6.000000,0.500000,1.000000
6, test, 1, probe, 19, 1, 3, 3, 1, 0.3, 0.6, right, 2, 0.3, 0.4, 0.6, 0.7, 3.735645600128919, 1, 88.435546875, 1.6833031999412924, 11.000000, 14.000000, 2.000000,2.000000,1.000000,6.000000,0.500000,1.000000
6, test, 1, no_probe, 20, 1, 3, 3, 1, 0.3, 0.6, right, 2, 0.3, 0.4, 0.6, 0.7, 0.607128799892962, 1, , , 12.000000, 15.000000, 1.000000,2.000000,1.000000,6.000000,0.500000,1.000000
6, test, 1, probe, 21, 4, 1, 4, 1, 0.7, 0.3, left, 1, 0.3, 0.4, 0.6, 0.7, 1.7246615998446941, 1, 90.81613159179688, 1.699983200058341, 13.000000, 16.000000, 2.000000,2.000000,1.000000,6.000000,0.500000,1.000000
6, test, 1, no_probe, 22, 4, 3, 4, 3, 0.7, 0.6, left, 1, 0.3, 0.4, 0.6, 0.7, 1.1268153002019972, 0, , , 13.000000, 16.000000, 1.000000,3.000000,1.000000,6.000000,0.500000,1.000000
6, test, 1, no_probe, 23, 1, 4, 1, 4, 0.3, 0.7, left, 1, 0.3, 0.4, 0.6, 0.7, 1.1513155999127775, 1, , , 14.000000, 17.000000, 2.000000,3.000000,1.000000,6.000000,0.500000,1.000000
6, test, 1, probe, 24, 1, 4, 1, 4, 0.3, 0.7, left, 1, 0.3, 0.4, 0.6, 0.7, 0.9113584998995066, 0, 88.86920166015625, 3.3832841000985354, 14.000000, 17.000000, 3.000000,3.000000,1.000000,6.000000,0.500000,1.000000
6, test, 1, no_probe, 25, 3, 4, 3, 4, 0.6, 0.7, left, 1, 0.3, 0.4, 0.6, 0.7, 1.4546486001927406, 1, , , 15.000000, 18.000000, 1.000000,2.000000,1.000000,6.000000,0.500000,1.000000
6, test, 2, no_probe, 1, 4, 2, 4, 2, 0.7, 0.4, left, 1, 0.3, 0.4, 0.6, 0.7, 0.9084532000124454, 0, , , 0.000000, 18.000000, 1.000000,3.000000,1.000000,6.000000,0.500000,1.000000
6, test, 2, no_probe, 2, 1, 4, 4, 1, 0.3, 0.7, right, 2, 0.3, 0.4, 0.6, 0.7, 0.4657201999798417, 0, , , 0.000000, 18.000000, 2.000000,3.000000,1.000000,6.000000,0.500000,1.000000
6, test, 2, probe, 3, 3, 2, 3, 2, 0.6, 0.4, left, 1, 0.3, 0.4, 0.6, 0.7, 0.8209858001209795, 1, 93.40292358398438, 3.4829555000178516, 1.000000, 19.000000, 3.000000,3.000000,1.000000,6.000000,0.500000,1.000000
6, test, 2, no_probe, 4, 2, 4, 2, 4, 0.4, 0.7, left, 1, 0.3, 0.4, 0.6, 0.7, 1.7329154000617564, 0, , , 1.000000, 19.000000, 1.000000,3.000000,1.000000,6.000000,0.500000,1.000000
6, test, 2, no_probe, 5, 1, 2, 1, 2, 0.3, 0.4, left, 1, 0.3, 0.4, 0.6, 0.7, 0.8613895000889897, 0, , , 1.000000, 19.000000, 2.000000,3.000000,1.000000,6.000000,0.500000,1.000000
6, test, 2, probe, 6, 2, 1, 1, 2, 0.4, 0.3, right, 2, 0.3, 0.4, 0.6, 0.7, 0.98343940009363, 1, 95.10684204101562, 2.9666075001005083, 2.000000, 20.000000, 3.000000,3.000000,1.000000,6.000000,0.500000,1.000000
6, test, 2, no_probe, 7, 3, 2, 2, 3, 0.6, 0.4, right, 2, 0.3, 0.4, 0.6, 0.7, 0.8983972000423819, 0, , , 2.000000, 20.000000, 1.000000,3.000000,1.000000,6.000000,0.500000,1.000000
6, test, 2, no_probe, 8, 4, 1, 1, 4, 0.7, 0.3, right, 2, 0.3, 0.4, 0.6, 0.7, 2.4602158998604864, 1, , , 3.000000, 21.000000, 2.000000,3.000000,1.000000,6.000000,0.500000,1.000000
6, test, 2, probe, 9, 3, 4, 4, 3, 0.6, 0.7, right, 2, 0.3, 0.4, 0.6, 0.7, 2.010648400057107, 1, 90.38388061523438, 1.7166539998725057, 4.000000, 22.000000, 3.000000,3.000000,1.000000,6.000000,0.500000,1.000000
6, test, 2, no_probe, 10, 3, 1, 1, 3, 0.6, 0.3, right, 2, 0.3, 0.4, 0.6, 0.7, 1.4585027999710292, 1, , , 5.000000, 23.000000, 1.000000,3.000000,1.000000,6.000000,0.500000,1.000000
6, test, 2, no_probe, 11, 4, 2, 2, 4, 0.7, 0.4, right, 2, 0.3, 0.4, 0.6, 0.7, 1.2136764000169933, 0, , , 5.000000, 23.000000, 2.000000,3.000000,1.000000,6.000000,0.500000,1.000000
6, test, 2, probe, 12, 2, 1, 2, 1, 0.4, 0.3, left, 1, 0.3, 0.4, 0.6, 0.7, 1.1869212000165135, 1, 91.38052368164062, 2.0166064999066293, 6.000000, 24.000000, 3.000000,3.000000,1.000000,6.000000,0.500000,1.000000
6, test, 2, no_probe, 13, 3, 2, 2, 3, 0.6, 0.4, right, 2, 0.3, 0.4, 0.6, 0.7, 2.2097145998850465, 0, , , 6.000000, 24.000000, 1.000000,3.000000,1.000000,6.000000,0.500000,1.000000
6, test, 2, no_probe, 14, 3, 2, 3, 2, 0.6, 0.4, left, 1, 0.3, 0.4, 0.6, 0.7, 1.4757440998218954, 1, , , 7.000000, 25.000000, 2.000000,3.000000,1.000000,6.000000,0.500000,1.000000
6, test, 2, probe, 15, 3, 1, 3, 1, 0.6, 0.3, left, 1, 0.3, 0.4, 0.6, 0.7, 1.3301544999703765, 0, 95.8707275390625, 4.083279900019988, 7.000000, 25.000000, 3.000000,3.000000,1.000000,6.000000,0.500000,1.000000
6, test, 2, no_probe, 16, 4, 2, 2, 4, 0.7, 0.4, right, 2, 0.3, 0.4, 0.6, 0.7, 1.7780789001844823, 1, , , 8.000000, 26.000000, 1.000000,3.000000,1.000000,6.000000,0.500000,1.000000
6, test, 2, no_probe, 17, 3, 4, 4, 3, 0.6, 0.7, right, 2, 0.3, 0.4, 0.6, 0.7, 1.3362134001217782, 0, , , 8.000000, 26.000000, 2.000000,3.000000,1.000000,6.000000,0.500000,1.000000
6, test, 2, probe, 18, 4, 1, 1, 4, 0.7, 0.3, right, 2, 0.3, 0.4, 0.6, 0.7, 1.3638688998762518, 1, 92.94247436523438, 2.5333050000481308, 9.000000, 27.000000, 3.000000,3.000000,1.000000,6.000000,0.500000,1.000000
6, test, 2, no_probe, 19, 2, 3, 3, 2, 0.4, 0.6, right, 2, 0.3, 0.4, 0.6, 0.7, 1.9407858999911696, 1, , , 10.000000, 28.000000, 1.000000,3.000000,1.000000,6.000000,0.500000,1.000000
6, test, 2, no_probe, 20, 2, 3, 2, 3, 0.4, 0.6, left, 1, 0.3, 0.4, 0.6, 0.7, 2.0610035001300275, 1, , , 11.000000, 29.000000, 2.000000,3.000000,1.000000,6.000000,0.500000,1.000000
6, test, 2, probe, 21, 4, 2, 2, 4, 0.7, 0.4, right, 2, 0.3, 0.4, 0.6, 0.7, 1.482810900080949, 1, 92.65740966796875, 1.999963300069794, 12.000000, 30.000000, 3.000000,3.000000,1.000000,6.000000,0.500000,1.000000
6, test, 2, no_probe, 22, 2, 1, 1, 2, 0.4, 0.3, right, 2, 0.3, 0.4, 0.6, 0.7, 1.72933640005067, 1, , , 13.000000, 31.000000, 1.000000,3.000000,1.000000,6.000000,0.500000,1.000000
6, test, 2, no_probe, 23, 2, 1, 1, 2, 0.4, 0.3, right, 2, 0.3, 0.4, 0.6, 0.7, 1.204874400049448, 0, , , 13.000000, 31.000000, 2.000000,3.000000,1.000000,6.000000,0.500000,1.000000
6, test, 2, probe, 24, 4, 1, 4, 1, 0.7, 0.3, left, 1, 0.3, 0.4, 0.6, 0.7, 1.6567552001215518, 1, 90.98806762695312, 1.8332316000014544, 14.000000, 32.000000, 3.000000,3.000000,1.000000,6.000000,0.500000,1.000000
6, test, 2, no_probe, 25, 3, 1, 1, 3, 0.6, 0.3, right, 2, 0.3, 0.4, 0.6, 0.7, 1.2113345998805016, 1, , , 15.000000, 33.000000, 1.000000,2.000000,1.000000,6.000000,0.500000,1.000000
6, test, 3, no_probe, 1, 3, 2, 3, 2, 0.6, 0.4, left, 1, 0.3, 0.4, 0.6, 0.7, 1.1770564999897033, 0, , , 0.000000, 33.000000, 1.000000,3.000000,1.000000,6.000000,0.500000,1.000000
6, test, 3, no_probe, 2, 1, 3, 1, 3, 0.3, 0.6, left, 1, 0.3, 0.4, 0.6, 0.7, 0.775815200060606, 0, , , 0.000000, 33.000000, 2.000000,3.000000,1.000000,6.000000,0.500000,1.000000
6, test, 3, probe, 3, 1, 3, 3, 1, 0.3, 0.6, right, 2, 0.3, 0.4, 0.6, 0.7, 1.315516000147909, 0, 92.490478515625, 2.3662936000619084, 0.000000, 33.000000, 3.000000,3.000000,1.000000,6.000000,0.500000,1.000000
6, test, 3, no_probe, 4, 4, 3, 4, 3, 0.7, 0.6, left, 1, 0.3, 0.4, 0.6, 0.7, 1.027803499950096, 1, , , 1.000000, 34.000000, 1.000000,3.000000,1.000000,6.000000,0.500000,1.000000
6, test, 3, no_probe, 5, 2, 4, 4, 2, 0.4, 0.7, right, 2, 0.3, 0.4, 0.6, 0.7, 1.0880299999844283, 0, , , 1.000000, 34.000000, 2.000000,3.000000,1.000000,6.000000,0.500000,1.000000
6, test, 3, probe, 6, 2, 1, 2, 1, 0.4, 0.3, left, 1, 0.3, 0.4, 0.6, 0.7, 0.9126315999310464, 0, 91.46578979492188, 2.499976199818775, 1.000000, 34.000000, 3.000000,3.000000,1.000000,6.000000,0.500000,1.000000
6, test, 3, no_probe, 7, 3, 1, 3, 1, 0.6, 0.3, left, 1, 0.3, 0.4, 0.6, 0.7, 1.6923245000652969, 0, , , 1.000000, 34.000000, 1.000000,3.000000,1.000000,6.000000,0.500000,1.000000
6, test, 3, no_probe, 8, 4, 1, 1, 4, 0.7, 0.3, right, 2, 0.3, 0.4, 0.6, 0.7, 1.0501691999379545, 0, , , 1.000000, 34.000000, 2.000000,3.000000,1.000000,6.000000,0.500000,1.000000
6, test, 3, probe, 9, 2, 1, 2, 1, 0.4, 0.3, left, 1, 0.3, 0.4, 0.6, 0.7, 1.0060936999507248, 1, 87.60116577148438, 1.800012200139463, 2.000000, 35.000000, 3.000000,3.000000,1.000000,6.000000,0.500000,1.000000
6, test, 3, no_probe, 10, 1, 3, 1, 3, 0.3, 0.6, left, 1, 0.3, 0.4, 0.6, 0.7, 1.8030885001644492, 1, , , 3.000000, 36.000000, 1.000000,2.000000,1.000000,6.000000,0.500000,1.000000
6, test, 3, probe, 11, 4, 1, 4, 1, 0.7, 0.3, left, 1, 0.3, 0.4, 0.6, 0.7, 1.2046537001151592, 0, 87.93292236328125, 1.7832991001196206, 3.000000, 36.000000, 2.000000,2.000000,1.000000,6.000000,0.500000,1.000000
6, test, 3, no_probe, 12, 4, 3, 4, 3, 0.7, 0.6, left, 1, 0.3, 0.4, 0.6, 0.7, 1.0357707999646664, 1, , , 4.000000, 37.000000, 1.000000,2.000000,1.000000,6.000000,0.500000,1.000000
6, test, 3, probe, 13, 1, 4, 4, 1, 0.3, 0.7, right, 2, 0.3, 0.4, 0.6, 0.7, 1.0932295999955386, 0, 86.18814086914062, 1.6500050998292863, 4.000000, 37.000000, 2.000000,2.000000,1.000000,6.000000,0.500000,1.000000
6, test, 3, no_probe, 14, 2, 3, 3, 2, 0.4, 0.6, right, 2, 0.3, 0.4, 0.6, 0.7, 1.1266433999408036, 0, , , 4.000000, 37.000000, 1.000000,2.000000,1.000000,6.000000,0.500000,1.000000
6, test, 3, probe, 15, 4, 3, 3, 4, 0.7, 0.6, right, 2, 0.3, 0.4, 0.6, 0.7, 1.0368287998717278, 1, 81.540283203125, 2.1499564999248832, 5.000000, 38.000000, 2.000000,2.000000,1.000000,6.000000,0.500000,1.000000
6, test, 3, no_probe, 16, 4, 3, 3, 4, 0.7, 0.6, right, 2, 0.3, 0.4, 0.6, 0.7, 1.8853343001101166, 1, , , 6.000000, 39.000000, 1.000000,3.000000,1.000000,6.000000,0.500000,1.000000
6, test, 3, no_probe, 17, 2, 3, 2, 3, 0.4, 0.6, left, 1, 0.3, 0.4, 0.6, 0.7, 1.23122139996849, 1, , , 7.000000, 40.000000, 2.000000,3.000000,1.000000,6.000000,0.500000,1.000000
6, test, 3, probe, 18, 4, 2, 4, 2, 0.7, 0.4, left, 1, 0.3, 0.4, 0.6, 0.7, 1.2434497999493033, 1, 87.59268188476562, 2.1166069000028074, 8.000000, 41.000000, 3.000000,3.000000,1.000000,6.000000,0.500000,1.000000
6, test, 3, no_probe, 19, 4, 3, 3, 4, 0.7, 0.6, right, 2, 0.3, 0.4, 0.6, 0.7, 0.7612560000270605, 1, , , 9.000000, 42.000000, 1.000000,3.000000,1.000000,6.000000,0.500000,1.000000
6, test, 3, no_probe, 20, 4, 1, 4, 1, 0.7, 0.3, left, 1, 0.3, 0.4, 0.6, 0.7, 0.5674096001312137, 1, , , 10.000000, 43.000000, 2.000000,3.000000,1.000000,6.000000,0.500000,1.000000
6, test, 3, probe, 21, 4, 3, 4, 3, 0.7, 0.6, left, 1, 0.3, 0.4, 0.6, 0.7, 0.9136813001241535, 0, 82.27389526367188, 1.69998969999142, 10.000000, 43.000000, 3.000000,3.000000,1.000000,6.000000,0.500000,1.000000
6, test, 3, no_probe, 22, 4, 3, 3, 4, 0.7, 0.6, right, 2, 0.3, 0.4, 0.6, 0.7, 1.8740757000632584, 0, , , 10.000000, 43.000000, 1.000000,3.000000,1.000000,6.000000,0.500000,1.000000
6, test, 3, no_probe, 23, 2, 1, 2, 1, 0.4, 0.3, left, 1, 0.3, 0.4, 0.6, 0.7, 1.0926459000911564, 0, , , 10.000000, 43.000000, 2.000000,3.000000,1.000000,6.000000,0.500000,1.000000
6, test, 3, probe, 24, 4, 3, 3, 4, 0.7, 0.6, right, 2, 0.3, 0.4, 0.6, 0.7, 0.8657541000284255, 1, 87.86550903320312, 1.916687099961564, 11.000000, 44.000000, 3.000000,3.000000,1.000000,6.000000,0.500000,1.000000
6, test, 3, no_probe, 25, 2, 3, 2, 3, 0.4, 0.6, left, 1, 0.3, 0.4, 0.6, 0.7, 1.723617000039667, 1, , , 12.000000, 45.000000, 1.000000,3.000000,1.000000,6.000000,0.500000,1.000000
6, test, 4, no_probe, 1, 4, 3, 3, 4, 0.7, 0.6, right, 2, 0.3, 0.4, 0.6, 0.7, 1.6228895999956876, 1, , , 1.000000, 46.000000, 1.000000,3.000000,1.000000,6.000000,0.500000,1.000000
6, test, 4, no_probe, 2, 4, 3, 3, 4, 0.7, 0.6, right, 2, 0.3, 0.4, 0.6, 0.7, 0.8203930999152362, 0, , , 1.000000, 46.000000, 2.000000,3.000000,1.000000,6.000000,0.500000,1.000000
6, test, 4, probe, 3, 4, 3, 3, 4, 0.7, 0.6, right, 2, 0.3, 0.4, 0.6, 0.7, 0.7656374999787658, 0, 89.2825927734375, 1.799543100176379, 1.000000, 46.000000, 3.000000,3.000000,1.000000,6.000000,0.500000,1.000000
6, test, 4, no_probe, 4, 1, 4, 1, 4, 0.3, 0.7, left, 1, 0.3, 0.4, 0.6, 0.7, 1.2870087998453528, 0, , , 1.000000, 46.000000, 1.000000,3.000000,1.000000,6.000000,0.500000,1.000000
6, test, 4, no_probe, 5, 3, 1, 1, 3, 0.6, 0.3, right, 2, 0.3, 0.4, 0.6, 0.7, 0.8957851999439299, 1, , , 2.000000, 47.000000, 2.000000,3.000000,1.000000,6.000000,0.500000,1.000000
6, test, 4, probe, 6, 3, 4, 4, 3, 0.6, 0.7, right, 2, 0.3, 0.4, 0.6, 0.7, 0.5529419002123177, 0, 82.70394897460938, 1.6999786000233144, 2.000000, 47.000000, 3.000000,3.000000,1.000000,6.000000,0.500000,1.000000
6, test, 4, no_probe, 7, 2, 4, 2, 4, 0.4, 0.7, left, 1, 0.3, 0.4, 0.6, 0.7, 1.1079498999752104, 0, , , 2.000000, 47.000000, 1.000000,2.000000,1.000000,6.000000,0.500000,1.000000
6, test, 4, probe, 8, 4, 2, 2, 4, 0.7, 0.4, right, 2, 0.3, 0.4, 0.6, 0.7, 0.6689855000004172, 0, 78.8018798828125, 2.383273699786514, 2.000000, 47.000000, 2.000000,2.000000,1.000000,6.000000,0.500000,1.000000
6, test, 4, no_probe, 9, 1, 4, 1, 4, 0.3, 0.7, left, 1, 0.3, 0.4, 0.6, 0.7, 1.3548163999803364, 0, , , 2.000000, 47.000000, 1.000000,2.000000,1.000000,6.000000,0.500000,1.000000
6, test, 4, probe, 10, 1, 2, 2, 1, 0.3, 0.4, right, 2, 0.3, 0.4, 0.6, 0.7, 2.2376411000732332, 0, 76.57296752929688, 1.8666368999984115, 2.000000, 47.000000, 2.000000,2.000000,1.000000,6.000000,0.500000,1.000000
6, test, 4, no_probe, 11, 1, 2, 1, 2, 0.3, 0.4, left, 1, 0.3, 0.4, 0.6, 0.7, 1.1985299000516534, 1, , , 3.000000, 48.000000, 1.000000,2.000000,1.000000,6.000000,0.500000,1.000000
6, test, 4, probe, 12, 3, 1, 3, 1, 0.6, 0.3, left, 1, 0.3, 0.4, 0.6, 0.7, 0.7114413001108915, 0, 72.15774536132812, 1.6166073000058532, 3.000000, 48.000000, 2.000000,2.000000,1.000000,6.000000,0.500000,1.000000
6, test, 4, no_probe, 13, 1, 2, 1, 2, 0.3, 0.4, left, 1, 0.3, 0.4, 0.6, 0.7, 3.354972300119698, 1, , , 4.000000, 49.000000, 1.000000,2.000000,1.000000,6.000000,0.500000,1.000000
6, test, 4, probe, 14, 2, 1, 2, 1, 0.4, 0.3, left, 1, 0.3, 0.4, 0.6, 0.7, 2.0815238000359386, 1, 82.044677734375, 1.633406300097704, 5.000000, 50.000000, 2.000000,2.000000,1.000000,6.000000,0.500000,1.000000
6, test, 4, no_probe, 15, 3, 2, 2, 3, 0.6, 0.4, right, 2, 0.3, 0.4, 0.6, 0.7, 0.9898486998863518, 0, , , 5.000000, 50.000000, 1.000000,3.000000,1.000000,6.000000,0.500000,1.000000
6, test, 4, no_probe, 16, 2, 3, 3, 2, 0.4, 0.6, right, 2, 0.3, 0.4, 0.6, 0.7, 0.8633768002036959, 0, , , 5.000000, 50.000000, 2.000000,3.000000,1.000000,6.000000,0.500000,1.000000
6, test, 4, probe, 17, 4, 1, 1, 4, 0.7, 0.3, right, 2, 0.3, 0.4, 0.6, 0.7, 1.0215875001158565, 1, 76.79312133789062, 2.2000041001010686, 6.000000, 51.000000, 3.000000,3.000000,1.000000,6.000000,0.500000,1.000000
6, test, 4, no_probe, 18, 4, 1, 4, 1, 0.7, 0.3, left, 1, 0.3, 0.4, 0.6, 0.7, 2.9529864999931306, 1, , , 7.000000, 52.000000, 1.000000,3.000000,1.000000,6.000000,0.500000,1.000000
6, test, 4, no_probe, 19, 3, 4, 3, 4, 0.6, 0.7, left, 1, 0.3, 0.4, 0.6, 0.7, 1.769008600153029, 0, , , 7.000000, 52.000000, 2.000000,3.000000,1.000000,6.000000,0.500000,1.000000
6, test, 4, probe, 20, 1, 3, 3, 1, 0.3, 0.6, right, 2, 0.3, 0.4, 0.6, 0.7, 1.3042745001148432, 0, 58.3896484375, 1.9833392000291497, 7.000000, 52.000000, 3.000000,3.000000,1.000000,6.000000,0.500000,1.000000
6, test, 4, no_probe, 21, 4, 2, 4, 2, 0.7, 0.4, left, 1, 0.3, 0.4, 0.6, 0.7, 1.664401900023222, 0, , , 7.000000, 52.000000, 1.000000,2.000000,1.000000,6.000000,0.500000,1.000000
6, test, 4, probe, 22, 3, 2, 3, 2, 0.6, 0.4, left, 1, 0.3, 0.4, 0.6, 0.7, 0.8623339999467134, 1, 59.954681396484375, 2.466617199825123, 8.000000, 53.000000, 2.000000,2.000000,1.000000,6.000000,0.500000,1.000000
6, test, 4, no_probe, 23, 3, 2, 3, 2, 0.6, 0.4, left, 1, 0.3, 0.4, 0.6, 0.7, 1.3663884999696165, 1, , , 9.000000, 54.000000, 1.000000,2.000000,1.000000,6.000000,0.500000,1.000000
6, test, 4, probe, 24, 2, 3, 3, 2, 0.4, 0.6, right, 2, 0.3, 0.4, 0.6, 0.7, 0.39190390007570386, 0, 63.01898193359375, 3.666597800096497, 9.000000, 54.000000, 2.000000,2.000000,1.000000,6.000000,0.500000,1.000000
6, test, 4, no_probe, 25, 3, 2, 3, 2, 0.6, 0.4, left, 1, 0.3, 0.4, 0.6, 0.7, 0.9865635000169277, 1, , , 10.000000, 55.000000, 1.000000,3.000000,1.000000,6.000000,0.500000,1.000000
6, test, 5, no_probe, 1, 1, 2, 2, 1, 0.3, 0.4, right, 2, 0.3, 0.4, 0.6, 0.7, 1.7332812000531703, 0, , , 0.000000, 55.000000, 1.000000,2.000000,1.000000,6.000000,0.500000,1.000000
6, test, 5, probe, 2, 4, 3, 4, 3, 0.7, 0.6, left, 1, 0.3, 0.4, 0.6, 0.7, 1.0279878000728786, 0, 49.99755859375, 1.3333272999152541, 0.000000, 55.000000, 2.000000,2.000000,1.000000,6.000000,0.500000,1.000000
6, test, 5, no_probe, 3, 3, 4, 4, 3, 0.6, 0.7, right, 2, 0.3, 0.4, 0.6, 0.7, 1.4061076000798494, 1, , , 1.000000, 56.000000, 1.000000,2.000000,1.000000,6.000000,0.500000,1.000000
6, test, 5, probe, 4, 3, 4, 4, 3, 0.6, 0.7, right, 2, 0.3, 0.4, 0.6, 0.7, 1.6028146999888122, 0, 46.923919677734375, 2.416654699947685, 1.000000, 56.000000, 2.000000,2.000000,1.000000,6.000000,0.500000,1.000000
6, test, 5, no_probe, 5, 3, 1, 1, 3, 0.6, 0.3, right, 2, 0.3, 0.4, 0.6, 0.7, 1.6760311999823898, 0, , , 1.000000, 56.000000, 1.000000,2.000000,1.000000,6.000000,0.500000,1.000000
6, test, 5, probe, 6, 2, 1, 2, 1, 0.4, 0.3, left, 1, 0.3, 0.4, 0.6, 0.7, 1.644986900035292, 0, 53.648834228515625, 2.349957099882886, 1.000000, 56.000000, 2.000000,2.000000,1.000000,6.000000,0.500000,1.000000
6, test, 5, no_probe, 7, 1, 3, 3, 1, 0.3, 0.6, right, 2, 0.3, 0.4, 0.6, 0.7, 1.8097135999705642, 0, , , 1.000000, 56.000000, 1.000000,2.000000,1.000000,6.000000,0.500000,1.000000
6, test, 5, probe, 8, 3, 4, 3, 4, 0.6, 0.7, left, 1, 0.3, 0.4, 0.6, 0.7, 0.8160333000123501, 1, 57.323516845703125, 2.0166283999569714, 2.000000, 57.000000, 2.000000,2.000000,1.000000,6.000000,0.500000,1.000000
6, test, 5, no_probe, 9, 1, 4, 1, 4, 0.3, 0.7, left, 1, 0.3, 0.4, 0.6, 0.7, 1.3373950000386685, 0, , , 2.000000, 57.000000, 1.000000,2.000000,1.000000,6.000000,0.500000,1.000000
6, test, 5, probe, 10, 4, 2, 4, 2, 0.7, 0.4, left, 1, 0.3, 0.4, 0.6, 0.7, 0.8932127000298351, 1, 51.2364501953125, 3.033286700025201, 3.000000, 58.000000, 2.000000,2.000000,1.000000,6.000000,0.500000,1.000000
6, test, 5, no_probe, 11, 4, 3, 3, 4, 0.7, 0.6, right, 2, 0.3, 0.4, 0.6, 0.7, 1.5367004999425262, 1, , , 4.000000, 59.000000, 1.000000,2.000000,1.000000,6.000000,0.500000,1.000000
6, test, 5, probe, 12, 4, 2, 2, 4, 0.7, 0.4, right, 2, 0.3, 0.4, 0.6, 0.7, 1.4614320998080075, 1, 60.063201904296875, 2.0333090000785887, 5.000000, 60.000000, 2.000000,2.000000,1.000000,6.000000,0.500000,1.000000
6, test, 5, no_probe, 13, 4, 2, 2, 4, 0.7, 0.4, right, 2, 0.3, 0.4, 0.6, 0.7, 3.27821629983373, 1, , , 6.000000, 61.000000, 1.000000,3.000000,1.000000,6.000000,0.500000,1.000000
6, test, 5, no_probe, 14, 4, 3, 4, 3, 0.7, 0.6, left, 1, 0.3, 0.4, 0.6, 0.7, 1.1045699999667704, 1, , , 7.000000, 62.000000, 2.000000,3.000000,1.000000,6.000000,0.500000,1.000000
6, test, 5, probe, 15, 3, 1, 3, 1, 0.6, 0.3, left, 1, 0.3, 0.4, 0.6, 0.7, 0.7370123998261988, 0, 71.75042724609375, 1.8833284999709576, 7.000000, 62.000000, 3.000000,3.000000,1.000000,6.000000,0.500000,1.000000
6, test, 5, no_probe, 16, 3, 2, 3, 2, 0.6, 0.4, left, 1, 0.3, 0.4, 0.6, 0.7, 1.9007931998930871, 1, , , 8.000000, 63.000000, 1.000000,3.000000,1.000000,6.000000,0.500000,1.000000
6, test, 5, no_probe, 17, 2, 3, 3, 2, 0.4, 0.6, right, 2, 0.3, 0.4, 0.6, 0.7, 1.1740669999271631, 1, , , 9.000000, 64.000000, 2.000000,3.000000,1.000000,6.000000,0.500000,1.000000
6, test, 5, probe, 18, 1, 3, 3, 1, 0.3, 0.6, right, 2, 0.3, 0.4, 0.6, 0.7, 1.4574213998857886, 1, 68.86871337890625, 1.4999875000212342, 10.000000, 65.000000, 3.000000,3.000000,1.000000,6.000000,0.500000,1.000000
6, test, 5, no_probe, 19, 4, 2, 4, 2, 0.7, 0.4, left, 1, 0.3, 0.4, 0.6, 0.7, 0.8381155000533909, 1, , , 11.000000, 66.000000, 1.000000,2.000000,1.000000,6.000000,0.500000,1.000000
6, test, 5, probe, 20, 4, 3, 4, 3, 0.7, 0.6, left, 1, 0.3, 0.4, 0.6, 0.7, 0.6584910000674427, 1, 68.99813842773438, 2.0832833000458777, 12.000000, 67.000000, 2.000000,2.000000,1.000000,6.000000,0.500000,1.000000
6, test, 5, no_probe, 21, 4, 3, 4, 3, 0.7, 0.6, left, 1, 0.3, 0.4, 0.6, 0.7, 0.6098444000817835, 1, , , 13.000000, 68.000000, 1.000000,3.000000,1.000000,6.000000,0.500000,1.000000
6, test, 5, no_probe, 22, 3, 2, 2, 3, 0.6, 0.4, right, 2, 0.3, 0.4, 0.6, 0.7, 2.5818039001896977, 0, , , 13.000000, 68.000000, 2.000000,3.000000,1.000000,6.000000,0.500000,1.000000
6, test, 5, probe, 23, 1, 2, 1, 2, 0.3, 0.4, left, 1, 0.3, 0.4, 0.6, 0.7, 0.9769159001298249, 1, 65.95895385742188, 1.833321699872613, 14.000000, 69.000000, 3.000000,3.000000,1.000000,6.000000,0.500000,1.000000
6, test, 5, no_probe, 24, 3, 1, 3, 1, 0.6, 0.3, left, 1, 0.3, 0.4, 0.6, 0.7, 1.9249933001119643, 1, , , 15.000000, 70.000000, 1.000000,2.000000,1.000000,6.000000,0.500000,1.000000
6, test, 5, probe, 25, 3, 2, 3, 2, 0.6, 0.4, left, 1, 0.3, 0.4, 0.6, 0.7, 2.1816467999015003, 1, 63.97723388671875, 1.3666594000533223, 16.000000, 71.000000, 2.000000,2.000000,1.000000,6.000000,0.500000,1.000000
6, test, 6, no_probe, 1, 4, 3, 4, 3, 0.7, 0.6, left, 1, 0.3, 0.4, 0.6, 0.7, 1.5202643999364227, 1, , , 1.000000, 72.000000, 1.000000,3.000000,1.000000,6.000000,0.500000,1.000000
6, test, 6, no_probe, 2, 2, 4, 2, 4, 0.4, 0.7, left, 1, 0.3, 0.4, 0.6, 0.7, 1.1268093998078257, 1, , , 2.000000, 73.000000, 2.000000,3.000000,1.000000,6.000000,0.500000,1.000000
6, test, 6, probe, 3, 2, 3, 2, 3, 0.4, 0.6, left, 1, 0.3, 0.4, 0.6, 0.7, 1.5897222000639886, 0, 61.3316650390625, 1.3829383999109268, 2.000000, 73.000000, 3.000000,3.000000,1.000000,6.000000,0.500000,1.000000
6, test, 6, no_probe, 4, 2, 3, 3, 2, 0.4, 0.6, right, 2, 0.3, 0.4, 0.6, 0.7, 1.3682705000974238, 0, , , 2.000000, 73.000000, 1.000000,3.000000,1.000000,6.000000,0.500000,1.000000
6, test, 6, no_probe, 5, 2, 3, 2, 3, 0.4, 0.6, left, 1, 0.3, 0.4, 0.6, 0.7, 0.9549982999451458, 0, , , 2.000000, 73.000000, 2.000000,3.000000,1.000000,6.000000,0.500000,1.000000
6, test, 6, probe, 6, 3, 2, 3, 2, 0.6, 0.4, left, 1, 0.3, 0.4, 0.6, 0.7, 1.7578885001130402, 1, 68.24264526367188, 1.5499204997904599, 3.000000, 74.000000, 3.000000,3.000000,1.000000,6.000000,0.500000,1.000000
6, test, 6, no_probe, 7, 2, 3, 3, 2, 0.4, 0.6, right, 2, 0.3, 0.4, 0.6, 0.7, 2.414700999855995, 0, , , 3.000000, 74.000000, 1.000000,3.000000,1.000000,6.000000,0.500000,1.000000
6, test, 6, no_probe, 8, 4, 1, 4, 1, 0.7, 0.3, left, 1, 0.3, 0.4, 0.6, 0.7, 1.614149000030011, 1, , , 4.000000, 75.000000, 2.000000,3.000000,1.000000,6.000000,0.500000,1.000000
6, test, 6, probe, 9, 1, 4, 4, 1, 0.3, 0.7, right, 2, 0.3, 0.4, 0.6, 0.7, 1.986938300076872, 1, 68.66665649414062, 1.8833031000103801, 5.000000, 76.000000, 3.000000,3.000000,1.000000,6.000000,0.500000,1.000000
6, test, 6, no_probe, 10, 4, 3, 4, 3, 0.7, 0.6, left, 1, 0.3, 0.4, 0.6, 0.7, 2.125353900017217, 0, , , 5.000000, 76.000000, 1.000000,2.000000,1.000000,6.000000,0.500000,1.000000
6, test, 6, probe, 11, 3, 4, 3, 4, 0.6, 0.7, left, 1, 0.3, 0.4, 0.6, 0.7, 2.88222480006516, 1, 63.30902099609375, 1.7499453001655638, 6.000000, 77.000000, 2.000000,2.000000,1.000000,6.000000,0.500000,1.000000
6, test, 6, no_probe, 12, 4, 3, 4, 3, 0.7, 0.6, left, 1, 0.3, 0.4, 0.6, 0.7, 1.3164043999277055, 1, , , 7.000000, 78.000000, 1.000000,2.000000,1.000000,6.000000,0.500000,1.000000
6, test, 6, probe, 13, 4, 3, 3, 4, 0.7, 0.6, right, 2, 0.3, 0.4, 0.6, 0.7, 4.112104899948463, 1, 62.954986572265625, 1.5499652000144124, 8.000000, 79.000000, 2.000000,2.000000,1.000000,6.000000,0.500000,1.000000
6, test, 6, no_probe, 14, 1, 4, 4, 1, 0.3, 0.7, right, 2, 0.3, 0.4, 0.6, 0.7, 2.5433632999192923, 0, , , 8.000000, 79.000000, 1.000000,2.000000,1.000000,6.000000,0.500000,1.000000
6, test, 6, probe, 15, 1, 3, 1, 3, 0.3, 0.6, left, 1, 0.3, 0.4, 0.6, 0.7, 1.9984593000262976, 0, 63.983978271484375, 2.5832779000047594, 8.000000, 79.000000, 2.000000,2.000000,1.000000,6.000000,0.500000,1.000000
6, test, 6, no_probe, 16, 1, 3, 1, 3, 0.3, 0.6, left, 1, 0.3, 0.4, 0.6, 0.7, 2.019730200059712, 0, , , 8.000000, 79.000000, 1.000000,2.000000,1.000000,6.000000,0.500000,1.000000
6, test, 6, probe, 17, 2, 3, 2, 3, 0.4, 0.6, left, 1, 0.3, 0.4, 0.6, 0.7, 1.6923447998706251, 0, 41.3680419921875, 2.199976099887863, 8.000000, 79.000000, 2.000000,2.000000,1.000000,6.000000,0.500000,1.000000
6, test, 6, no_probe, 18, 4, 3, 4, 3, 0.7, 0.6, left, 1, 0.3, 0.4, 0.6, 0.7, 1.3411926000844687, 1, , , 9.000000, 80.000000, 1.000000,3.000000,1.000000,6.000000,0.500000,1.000000
6, test, 6, no_probe, 19, 3, 2, 2, 3, 0.6, 0.4, right, 2, 0.3, 0.4, 0.6, 0.7, 1.5815866000484675, 1, , , 10.000000, 81.000000, 2.000000,3.000000,1.000000,6.000000,0.500000,1.000000
6, test, 6, probe, 20, 3, 2, 2, 3, 0.6, 0.4, right, 2, 0.3, 0.4, 0.6, 0.7, 1.2941423000302166, 1, 61.359161376953125, 1.4166497001424432, 11.000000, 82.000000, 3.000000,3.000000,1.000000,6.000000,0.500000,1.000000
6, test, 6, no_probe, 21, 4, 3, 3, 4, 0.7, 0.6, right, 2, 0.3, 0.4, 0.6, 0.7, 4.7479000999592245, 1, , , 12.000000, 83.000000, 1.000000,2.000000,1.000000,6.000000,0.500000,1.000000
6, test, 6, probe, 22, 2, 3, 2, 3, 0.4, 0.6, left, 1, 0.3, 0.4, 0.6, 0.7, 2.181719899876043, 1, 62.41558837890625, 1.3166724999900907, 13.000000, 84.000000, 2.000000,2.000000,1.000000,6.000000,0.500000,1.000000
6, test, 6, abort_trial, 23
6, test, 6, no_probe, 24, 4, 1, 1, 4, 0.7, 0.3, right, 2, 0.3, 0.4, 0.6, 0.7, 1.0234730001538992, 0, , , 13.000000, 84.000000, 1.000000,3.000000,1.000000,6.000000,0.500000,1.000000
6, test, 6, no_probe, 25, 3, 1, 1, 3, 0.6, 0.3, right, 2, 0.3, 0.4, 0.6, 0.7, 1.8234763001091778, 0, , , 13.000000, 84.000000, 2.000000,3.000000,1.000000,6.000000,0.500000,1.000000
6, test, 7, no_probe, 1, 2, 1, 1, 2, 0.4, 0.3, right, 2, 0.3, 0.4, 0.6, 0.7, 0.8881031000055373, 1, , , 1.000000, 85.000000, 1.000000,3.000000,1.000000,6.000000,0.500000,1.000000
6, test, 7, no_probe, 2, 2, 1, 1, 2, 0.4, 0.3, right, 2, 0.3, 0.4, 0.6, 0.7, 1.0627266000956297, 0, , , 1.000000, 85.000000, 2.000000,3.000000,1.000000,6.000000,0.500000,1.000000
6, test, 7, probe, 3, 3, 4, 3, 4, 0.6, 0.7, left, 1, 0.3, 0.4, 0.6, 0.7, 0.9569953000172973, 1, 60.82342529296875, 5.382901600096375, 2.000000, 86.000000, 3.000000,3.000000,1.000000,6.000000,0.500000,1.000000
6, test, 7, no_probe, 4, 4, 3, 3, 4, 0.7, 0.6, right, 2, 0.3, 0.4, 0.6, 0.7, 1.7692431998439133, 1, , , 3.000000, 87.000000, 1.000000,2.000000,1.000000,6.000000,0.500000,1.000000
6, test, 7, probe, 5, 2, 1, 1, 2, 0.4, 0.3, right, 2, 0.3, 0.4, 0.6, 0.7, 0.5059988000430167, 0, 60.771575927734375, 1.916648400016129, 3.000000, 87.000000, 2.000000,2.000000,1.000000,6.000000,0.500000,1.000000
6, test, 7, no_probe, 6, 3, 1, 3, 1, 0.6, 0.3, left, 1, 0.3, 0.4, 0.6, 0.7, 1.4266276000998914, 1, , , 4.000000, 88.000000, 1.000000,2.000000,1.000000,6.000000,0.500000,1.000000
6, test, 7, probe, 7, 4, 3, 4, 3, 0.7, 0.6, left, 1, 0.3, 0.4, 0.6, 0.7, 1.3981956001371145, 1, 57.481689453125, 1.5499625001102686, 5.000000, 89.000000, 2.000000,2.000000,1.000000,6.000000,0.500000,1.000000
6, test, 7, no_probe, 8, 2, 3, 3, 2, 0.4, 0.6, right, 2, 0.3, 0.4, 0.6, 0.7, 2.1773810999002308, 0, , , 5.000000, 89.000000, 1.000000,3.000000,1.000000,6.000000,0.500000,1.000000
6, test, 7, no_probe, 9, 4, 1, 4, 1, 0.7, 0.3, left, 1, 0.3, 0.4, 0.6, 0.7, 0.9910085999872535, 1, , , 6.000000, 90.000000, 2.000000,3.000000,1.000000,6.000000,0.500000,1.000000
6, test, 7, probe, 10, 4, 2, 4, 2, 0.7, 0.4, left, 1, 0.3, 0.4, 0.6, 0.7, 1.0698107001371682, 0, 67.74905395507812, 2.299935100134462, 6.000000, 90.000000, 3.000000,3.000000,1.000000,6.000000,0.500000,1.000000
6, test, 7, no_probe, 11, 3, 4, 3, 4, 0.6, 0.7, left, 1, 0.3, 0.4, 0.6, 0.7, 1.3178451999556273, 1, , , 7.000000, 91.000000, 1.000000,2.000000,1.000000,6.000000,0.500000,1.000000
6, test, 7, probe, 12, 3, 1, 3, 1, 0.6, 0.3, left, 1, 0.3, 0.4, 0.6, 0.7, 1.2188403001055121, 1, 64.694580078125, 1.4333005999214947, 8.000000, 92.000000, 2.000000,2.000000,1.000000,6.000000,0.500000,1.000000
6, test, 7, no_probe, 13, 2, 4, 2, 4, 0.4, 0.7, left, 1, 0.3, 0.4, 0.6, 0.7, 1.951597899897024, 1, , , 9.000000, 93.000000, 1.000000,3.000000,1.000000,6.000000,0.500000,1.000000
6, test, 7, no_probe, 14, 2, 1, 1, 2, 0.4, 0.3, right, 2, 0.3, 0.4, 0.6, 0.7, 0.9690113000106066, 0, , , 9.000000, 93.000000, 2.000000,3.000000,1.000000,6.000000,0.500000,1.000000
6, test, 7, probe, 15, 3, 1, 3, 1, 0.6, 0.3, left, 1, 0.3, 0.4, 0.6, 0.7, 0.8117611999623477, 1, 62.632659912109375, 1.3832969998475164, 10.000000, 94.000000, 3.000000,3.000000,1.000000,6.000000,0.500000,1.000000
6, test, 7, no_probe, 16, 2, 1, 1, 2, 0.4, 0.3, right, 2, 0.3, 0.4, 0.6, 0.7, 0.6556659999769181, 0, , , 10.000000, 94.000000, 1.000000,3.000000,1.000000,6.000000,0.500000,1.000000
6, test, 7, no_probe, 17, 4, 1, 4, 1, 0.7, 0.3, left, 1, 0.3, 0.4, 0.6, 0.7, 1.118195400107652, 1, , , 11.000000, 95.000000, 2.000000,3.000000,1.000000,6.000000,0.500000,1.000000
6, test, 7, probe, 18, 2, 1, 1, 2, 0.4, 0.3, right, 2, 0.3, 0.4, 0.6, 0.7, 0.7836697001475841, 0, 56.6273193359375, 3.649918300099671, 11.000000, 95.000000, 3.000000,3.000000,1.000000,6.000000,0.500000,1.000000
6, test, 7, no_probe, 19, 3, 1, 3, 1, 0.6, 0.3, left, 1, 0.3, 0.4, 0.6, 0.7, 0.8095809000078589, 0, , , 11.000000, 95.000000, 1.000000,3.000000,1.000000,6.000000,0.500000,1.000000
6, test, 7, no_probe, 20, 4, 1, 4, 1, 0.7, 0.3, left, 1, 0.3, 0.4, 0.6, 0.7, 1.3151879999786615, 1, , , 12.000000, 96.000000, 2.000000,3.000000,1.000000,6.000000,0.500000,1.000000
6, test, 7, probe, 21, 2, 1, 2, 1, 0.4, 0.3, left, 1, 0.3, 0.4, 0.6, 0.7, 1.1649140999652445, 1, 46.608367919921875, 1.849990600021556, 13.000000, 97.000000, 3.000000,3.000000,1.000000,6.000000,0.500000,1.000000
6, test, 7, no_probe, 22, 3, 1, 3, 1, 0.6, 0.3, left, 1, 0.3, 0.4, 0.6, 0.7, 0.9751061999704689, 1, , , 14.000000, 98.000000, 1.000000,2.000000,1.000000,6.000000,0.500000,1.000000
6, test, 7, probe, 23, 4, 1, 1, 4, 0.7, 0.3, right, 2, 0.3, 0.4, 0.6, 0.7, 0.3902904000133276, 1, 70.58761596679688, 2.316631499910727, 15.000000, 99.000000, 2.000000,2.000000,1.000000,6.000000,0.500000,1.000000
6, test, 7, no_probe, 24, 3, 2, 3, 2, 0.6, 0.4, left, 1, 0.3, 0.4, 0.6, 0.7, 1.0308592000510544, 1, , , 16.000000, 100.000000, 1.000000,2.000000,1.000000,6.000000,0.500000,1.000000
6, test, 7, probe, 25, 2, 4, 2, 4, 0.4, 0.7, left, 1, 0.3, 0.4, 0.6, 0.7, 1.775379200000316, 0, 49.99713134765625, 1.5666531000752002, 16.000000, 100.000000, 2.000000,2.000000,1.000000,6.000000,0.500000,1.000000
6, test, 8, no_probe, 1, 3, 4, 3, 4, 0.6, 0.7, left, 1, 0.3, 0.4, 0.6, 0.7, 0.667820599861443, 0, , , 0.000000, 100.000000, 1.000000,2.000000,1.000000,6.000000,0.500000,1.000000
6, test, 8, probe, 2, 1, 2, 1, 2, 0.3, 0.4, left, 1, 0.3, 0.4, 0.6, 0.7, 0.836963500129059, 0, 58.347808837890625, 4.416615899885073, 0.000000, 100.000000, 2.000000,2.000000,1.000000,6.000000,0.500000,1.000000
6, test, 8, no_probe, 3, 2, 3, 3, 2, 0.4, 0.6, right, 2, 0.3, 0.4, 0.6, 0.7, 1.215456600068137, 0, , , 0.000000, 100.000000, 1.000000,3.000000,1.000000,6.000000,0.500000,1.000000
6, test, 8, no_probe, 4, 4, 1, 1, 4, 0.7, 0.3, right, 2, 0.3, 0.4, 0.6, 0.7, 0.6809874000027776, 1, , , 1.000000, 101.000000, 2.000000,3.000000,1.000000,6.000000,0.500000,1.000000
6, test, 8, probe, 5, 4, 3, 3, 4, 0.7, 0.6, right, 2, 0.3, 0.4, 0.6, 0.7, 0.9854479997884482, 0, 56.44903564453125, 2.466619099956006, 1.000000, 101.000000, 3.000000,3.000000,1.000000,6.000000,0.500000,1.000000
6, test, 8, no_probe, 6, 3, 4, 4, 3, 0.6, 0.7, right, 2, 0.3, 0.4, 0.6, 0.7, 1.220558200031519, 0, , , 1.000000, 101.000000, 1.000000,2.000000,1.000000,6.000000,0.500000,1.000000
6, test, 8, probe, 7, 4, 1, 4, 1, 0.7, 0.3, left, 1, 0.3, 0.4, 0.6, 0.7, 0.39387939986772835, 1, 62.9503173828125, 1.7499928998295218, 2.000000, 102.000000, 2.000000,2.000000,1.000000,6.000000,0.500000,1.000000
6, test, 8, no_probe, 8, 1, 2, 1, 2, 0.3, 0.4, left, 1, 0.3, 0.4, 0.6, 0.7, 0.8869900000281632, 0, , , 2.000000, 102.000000, 1.000000,2.000000,1.000000,6.000000,0.500000,1.000000
6, test, 8, probe, 9, 4, 1, 1, 4, 0.7, 0.3, right, 2, 0.3, 0.4, 0.6, 0.7, 0.7453217001166195, 1, 64.86679077148438, 1.6500220999587327, 3.000000, 103.000000, 2.000000,2.000000,1.000000,6.000000,0.500000,1.000000
6, test, 8, no_probe, 10, 4, 1, 4, 1, 0.7, 0.3, left, 1, 0.3, 0.4, 0.6, 0.7, 1.4910326001700014, 1, , , 4.000000, 104.000000, 1.000000,3.000000,1.000000,6.000000,0.500000,1.000000
6, test, 8, no_probe, 11, 4, 1, 4, 1, 0.7, 0.3, left, 1, 0.3, 0.4, 0.6, 0.7, 0.639298299793154, 1, , , 5.000000, 105.000000, 2.000000,3.000000,1.000000,6.000000,0.500000,1.000000
6, test, 8, probe, 12, 2, 1, 1, 2, 0.4, 0.3, right, 2, 0.3, 0.4, 0.6, 0.7, 1.284736500121653, 0, 60.54583740234375, 1.9999682998750359, 5.000000, 105.000000, 3.000000,3.000000,1.000000,6.000000,0.500000,1.000000
6, test, 8, no_probe, 13, 4, 2, 4, 2, 0.7, 0.4, left, 1, 0.3, 0.4, 0.6, 0.7, 0.9095366999972612, 0, , , 5.000000, 105.000000, 1.000000,3.000000,1.000000,6.000000,0.500000,1.000000
6, test, 8, no_probe, 14, 2, 1, 1, 2, 0.4, 0.3, right, 2, 0.3, 0.4, 0.6, 0.7, 1.6133986001368612, 0, , , 5.000000, 105.000000, 2.000000,3.000000,1.000000,6.000000,0.500000,1.000000
6, test, 8, probe, 15, 4, 3, 3, 4, 0.7, 0.6, right, 2, 0.3, 0.4, 0.6, 0.7, 1.0148109998553991, 1, 67.60491943359375, 1.866645999951288, 6.000000, 106.000000, 3.000000,3.000000,1.000000,6.000000,0.500000,1.000000
6, test, 8, no_probe, 16, 4, 2, 2, 4, 0.7, 0.4, right, 2, 0.3, 0.4, 0.6, 0.7, 1.6235156999900937, 0, , , 6.000000, 106.000000, 1.000000,3.000000,1.000000,6.000000,0.500000,1.000000
6, test, 8, no_probe, 17, 4, 1, 4, 1, 0.7, 0.3, left, 1, 0.3, 0.4, 0.6, 0.7, 1.0679411999881268, 1, , , 7.000000, 107.000000, 2.000000,3.000000,1.000000,6.000000,0.500000,1.000000
6, test, 8, probe, 18, 2, 4, 4, 2, 0.4, 0.7, right, 2, 0.3, 0.4, 0.6, 0.7, 0.4996005001012236, 0, 59.632537841796875, 1.5499858998227865, 7.000000, 107.000000, 3.000000,3.000000,1.000000,6.000000,0.500000,1.000000
6, test, 8, no_probe, 19, 3, 2, 3, 2, 0.6, 0.4, left, 1, 0.3, 0.4, 0.6, 0.7, 1.6532555997837335, 0, , , 7.000000, 107.000000, 1.000000,3.000000,1.000000,6.000000,0.500000,1.000000
6, test, 8, no_probe, 20, 2, 1, 2, 1, 0.4, 0.3, left, 1, 0.3, 0.4, 0.6, 0.7, 0.6559117001015693, 0, , , 7.000000, 107.000000, 2.000000,3.000000,1.000000,6.000000,0.500000,1.000000
6, test, 8, probe, 21, 4, 1, 1, 4, 0.7, 0.3, right, 2, 0.3, 0.4, 0.6, 0.7, 0.5400211999658495, 0, 61.71527099609375, 1.7833666000515223, 7.000000, 107.000000, 3.000000,3.000000,1.000000,6.000000,0.500000,1.000000
6, test, 8, no_probe, 22, 4, 3, 4, 3, 0.7, 0.6, left, 1, 0.3, 0.4, 0.6, 0.7, 1.1991338999941945, 1, , , 8.000000, 108.000000, 1.000000,2.000000,1.000000,6.000000,0.500000,1.000000
6, test, 8, probe, 23, 4, 3, 3, 4, 0.7, 0.6, right, 2, 0.3, 0.4, 0.6, 0.7, 1.157227300107479, 1, 72.02947998046875, 1.9499538000673056, 9.000000, 109.000000, 2.000000,2.000000,1.000000,6.000000,0.500000,1.000000
6, test, 8, no_probe, 24, 1, 2, 2, 1, 0.3, 0.4, right, 2, 0.3, 0.4, 0.6, 0.7, 2.6974922998342663, 1, , , 10.000000, 110.000000, 1.000000,2.000000,1.000000,6.000000,0.500000,1.000000
6, test, 8, probe, 25, 1, 3, 3, 1, 0.3, 0.6, right, 2, 0.3, 0.4, 0.6, 0.7, 1.4976204000413418, 0, 77.59759521484375, 1.633271399885416, 10.000000, 110.000000, 2.000000,2.000000,1.000000,6.000000,0.500000,1.000000
