subject, block_type, block, thought probe, trial, chosen, unchosen, offer_left_image, offer_right_image, exp_value_chosen, exp_value_unchosen, choice_location, choice_key, exp_value1, exp_value2, exp_value3, exp_value4, RT, reward, vas, RT_vas, coins_per_block, coins_per_task, count_to_prob, ntrial_to_prob, ITI_duration,RT_deadline,choice_feedback_duration,outcome_duration
11, test, 1, no_probe, 1, 1, 4, 1, 4, 0.3, 0.7, left, 1, 0.3, 0.4, 0.6, 0.7, 1.4973571998998523, 0, , , 0.000000, 0.000000, 1.000000,2.000000,1.000000,6.000000,0.500000,1.000000
11, test, 1, probe, 2, 4, 3, 4, 3, 0.7, 0.6, left, 1, 0.3, 0.4, 0.6, 0.7, 1.3182673999108374, 1, 86.29177856445312, 6.283327199984342, 1.000000, 1.000000, 2.000000,2.000000,1.000000,6.000000,0.500000,1.000000
11, test, 1, no_probe, 3, 4, 3, 3, 4, 0.7, 0.6, right, 2, 0.3, 0.4, 0.6, 0.7, 1.3182503003627062, 1, , , 2.000000, 2.000000, 1.000000,2.000000,1.000000,6.000000,0.500000,1.000000
11, test, 1, probe, 4, 4, 3, 3, 4, 0.7, 0.6, right, 2, 0.3, 0.4, 0.6, 0.7, 0.5680193002335727, 1, 99.70913696289062, 4.766599199734628, 3.000000, 3.000000, 2.000000,2.000000,1.000000,6.000000,0.500000,1.000000
11, test, 1, no_probe, 5, 1, 3, 3, 1, 0.3, 0.6, right, 2, 0.3, 0.4, 0.6, 0.7, 1.0499867000617087, 0, , , 3.000000, 3.000000, 1.000000,3.000000,1.000000,6.000000,0.500000,1.000000
11, test, 1, no_probe, 6, 2, 1, 2, 1, 0.4, 0.3, left, 1, 0.3, 0.4, 0.6, 0.7, 1.221527500078082, 1, , , 4.000000, 4.000000, 2.000000,3.000000,1.000000,6.000000,0.500000,1.000000
11, test, 1, no_probe, 1, 4, 1, 1, 4, 0.7, 0.3, right, 2, 0.3, 0.4, 0.6, 0.7, 1.0434053000062704, 0, , , 0.000000, 4.000000, 1.000000,2.000000,1.000000,6.000000,0.500000,1.000000
11, test, 1, probe, 2, 2, 4, 4, 2, 0.4, 0.7, right, 2, 0.3, 0.4, 0.6, 0.7, 1.0061878999695182, 0, 86.57138061523438, 6.399980000220239, 0.000000, 4.000000, 2.000000,2.000000,1.000000,6.000000,0.500000,1.000000
11, test, 1, no_probe, 3, 1, 3, 3, 1, 0.3, 0.6, right, 2, 0.3, 0.4, 0.6, 0.7, 0.8225862998515368, 1, , , 1.000000, 5.000000, 1.000000,3.000000,1.000000,6.000000,0.500000,1.000000
11, test, 1, no_probe, 4, 1, 4, 4, 1, 0.3, 0.7, right, 2, 0.3, 0.4, 0.6, 0.7, 0.5587216997519135, 1, , , 2.000000, 6.000000, 2.000000,3.000000,1.000000,6.000000,0.500000,1.000000
11, test, 1, probe, 5, 1, 2, 2, 1, 0.3, 0.4, right, 2, 0.3, 0.4, 0.6, 0.7, 0.48612619983032346, 0, 89.810546875, 3.866566800046712, 2.000000, 6.000000, 3.000000,3.000000,1.000000,6.000000,0.500000,1.000000
11, test, 1, no_probe, 6, 1, 3, 3, 1, 0.3, 0.6, right, 2, 0.3, 0.4, 0.6, 0.7, 0.5603479999117553, 0, , , 2.000000, 6.000000, 1.000000,3.000000,1.000000,6.000000,0.500000,1.000000
11, test, 1, no_probe, 7, 2, 3, 2, 3, 0.4, 0.6, left, 1, 0.3, 0.4, 0.6, 0.7, 1.3234172998927534, 0, , , 2.000000, 6.000000, 2.000000,3.000000,1.000000,6.000000,0.500000,1.000000
11, test, 1, probe, 8, 4, 1, 1, 4, 0.7, 0.3, right, 2, 0.3, 0.4, 0.6, 0.7, 1.553406000137329, 1, 87.25686645507812, 4.049962399993092, 3.000000, 7.000000, 3.000000,3.000000,1.000000,6.000000,0.500000,1.000000
11, test, 1, no_probe, 9, 4, 3, 4, 3, 0.7, 0.6, left, 1, 0.3, 0.4, 0.6, 0.7, 1.6524263001047075, 0, , , 3.000000, 7.000000, 1.000000,3.000000,1.000000,6.000000,0.500000,1.000000
11, test, 1, no_probe, 10, 3, 4, 4, 3, 0.6, 0.7, right, 2, 0.3, 0.4, 0.6, 0.7, 1.3438872997649014, 0, , , 3.000000, 7.000000, 2.000000,3.000000,1.000000,6.000000,0.500000,1.000000
11, test, 1, probe, 11, 3, 1, 3, 1, 0.6, 0.3, left, 1, 0.3, 0.4, 0.6, 0.7, 2.2956254999153316, 1, 88.63494873046875, 3.3166271997615695, 4.000000, 8.000000, 3.000000,3.000000,1.000000,6.000000,0.500000,1.000000
11, test, 1, no_probe, 12, 3, 2, 3, 2, 0.6, 0.4, left, 1, 0.3, 0.4, 0.6, 0.7, 1.6206567999906838, 0, , , 4.000000, 8.000000, 1.000000,2.000000,1.000000,6.000000,0.500000,1.000000
11, test, 1, probe, 13, 1, 2, 2, 1, 0.3, 0.4, right, 2, 0.3, 0.4, 0.6, 0.7, 1.8925113999284804, 1, 86.87216186523438, 3.566585499793291, 5.000000, 9.000000, 2.000000,2.000000,1.000000,6.000000,0.500000,1.000000
11, test, 1, no_probe, 14, 3, 2, 3, 2, 0.6, 0.4, left, 1, 0.3, 0.4, 0.6, 0.7, 2.206643700134009, 0, , , 5.000000, 9.000000, 1.000000,3.000000,1.000000,6.000000,0.500000,1.000000
11, test, 1, no_probe, 15, 1, 4, 4, 1, 0.3, 0.7, right, 2, 0.3, 0.4, 0.6, 0.7, 1.080574099905789, 0, , , 5.000000, 9.000000, 2.000000,3.000000,1.000000,6.000000,0.500000,1.000000
11, test, 1, probe, 16, 3, 1, 1, 3, 0.6, 0.3, right, 2, 0.3, 0.4, 0.6, 0.7, 4.177924899850041, 1, 90.55435180664062, 3.1999491997994483, 6.000000, 10.000000, 3.000000,3.000000,1.000000,6.000000,0.500000,1.000000
11, test, 1, no_probe, 17, 4, 2, 2, 4, 0.7, 0.4, right, 2, 0.3, 0.4, 0.6, 0.7, 1.63206410035491, 0, , , 6.000000, 10.000000, 1.000000,2.000000,1.000000,6.000000,0.500000,1.000000
11, test, 1, probe, 18, 1, 2, 1, 2, 0.3, 0.4, left, 1, 0.3, 0.4, 0.6, 0.7, 1.0676429998129606, 0, 82.93124389648438, 4.9999700002372265, 6.000000, 10.000000, 2.000000,2.000000,1.000000,6.000000,0.500000,1.000000
11, test, 1, no_probe, 19, 2, 1, 2, 1, 0.4, 0.3, left, 1, 0.3, 0.4, 0.6, 0.7, 2.1897287000901997, 0, , , 6.000000, 10.000000, 1.000000,2.000000,1.000000,6.000000,0.500000,1.000000
11, test, 1, probe, 20, 1, 3, 1, 3, 0.3, 0.6, left, 1, 0.3, 0.4, 0.6, 0.7, 1.415293199941516, 0, 79.68170166015625, 3.3999751997180283, 6.000000, 10.000000, 2.000000,2.000000,1.000000,6.000000,0.500000,1.000000
11, test, 1, no_probe, 21, 1, 3, 3, 1, 0.3, 0.6, right, 2, 0.3, 0.4, 0.6, 0.7, 1.2670277999714017, 0, , , 6.000000, 10.000000, 1.000000,2.000000,1.000000,6.000000,0.500000,1.000000
11, test, 1, probe, 22, 3, 4, 4, 3, 0.6, 0.7, right, 2, 0.3, 0.4, 0.6, 0.7, 1.349435199983418, 1, 87.43890380859375, 3.4333199998363853, 7.000000, 11.000000, 2.000000,2.000000,1.000000,6.000000,0.500000,1.000000
11, test, 1, no_probe, 23, 3, 2, 2, 3, 0.6, 0.4, right, 2, 0.3, 0.4, 0.6, 0.7, 3.6379291000775993, 0, , , 7.000000, 11.000000, 1.000000,3.000000,1.000000,6.000000,0.500000,1.000000
11, test, 1, no_probe, 24, 3, 2, 3, 2, 0.6, 0.4, left, 1, 0.3, 0.4, 0.6, 0.7, 1.005871499888599, 1, , , 8.000000, 12.000000, 2.000000,3.000000,1.000000,6.000000,0.500000,1.000000
11, test, 1, probe, 25, 2, 3, 2, 3, 0.4, 0.6, left, 1, 0.3, 0.4, 0.6, 0.7, 4.727583299856633, 0, 82.76510620117188, 2.6166488002054393, 8.000000, 12.000000, 3.000000,3.000000,1.000000,6.000000,0.500000,1.000000
11, test, 2, no_probe, 1, 3, 1, 1, 3, 0.6, 0.3, right, 2, 0.3, 0.4, 0.6, 0.7, 1.5819354001432657, 1, , , 1.000000, 13.000000, 1.000000,2.000000,1.000000,6.000000,0.500000,1.000000
11, test, 2, probe, 2, 3, 1, 3, 1, 0.6, 0.3, left, 1, 0.3, 0.4, 0.6, 0.7, 0.9793369001708925, 0, 84.71755981445312, 3.616637300234288, 1.000000, 13.000000, 2.000000,2.000000,1.000000,6.000000,0.500000,1.000000
11, test, 2, no_probe, 3, 1, 4, 1, 4, 0.3, 0.7, left, 1, 0.3, 0.4, 0.6, 0.7, 2.5264330003410578, 1, , , 2.000000, 14.000000, 1.000000,3.000000,1.000000,6.000000,0.500000,1.000000
11, test, 2, no_probe, 4, 3, 2, 2, 3, 0.6, 0.4, right, 2, 0.3, 0.4, 0.6, 0.7, 2.156644399743527, 1, , , 3.000000, 15.000000, 2.000000,3.000000,1.000000,6.000000,0.500000,1.000000
11, test, 2, probe, 5, 1, 2, 1, 2, 0.3, 0.4, left, 1, 0.3, 0.4, 0.6, 0.7, 0.6150722997263074, 0, 89.01446533203125, 3.1332755000330508, 3.000000, 15.000000, 3.000000,3.000000,1.000000,6.000000,0.500000,1.000000
11, test, 2, no_probe, 6, 1, 4, 1, 4, 0.3, 0.7, left, 1, 0.3, 0.4, 0.6, 0.7, 1.6051381998695433, 1, , , 4.000000, 16.000000, 1.000000,3.000000,1.000000,6.000000,0.500000,1.000000
11, test, 2, no_probe, 7, 3, 4, 3, 4, 0.6, 0.7, left, 1, 0.3, 0.4, 0.6, 0.7, 1.0276071997359395, 1, , , 5.000000, 17.000000, 2.000000,3.000000,1.000000,6.000000,0.500000,1.000000
11, test, 2, probe, 8, 3, 2, 3, 2, 0.6, 0.4, left, 1, 0.3, 0.4, 0.6, 0.7, 1.5064846999011934, 0, 83.57363891601562, 2.833318400196731, 5.000000, 17.000000, 3.000000,3.000000,1.000000,6.000000,0.500000,1.000000
11, test, 2, no_probe, 9, 2, 4, 4, 2, 0.4, 0.7, right, 2, 0.3, 0.4, 0.6, 0.7, 1.798272400163114, 0, , , 5.000000, 17.000000, 1.000000,3.000000,1.000000,6.000000,0.500000,1.000000
11, test, 2, no_probe, 10, 1, 2, 1, 2, 0.3, 0.4, left, 1, 0.3, 0.4, 0.6, 0.7, 1.462460800074041, 0, , , 5.000000, 17.000000, 2.000000,3.000000,1.000000,6.000000,0.500000,1.000000
11, test, 2, probe, 11, 3, 1, 1, 3, 0.6, 0.3, right, 2, 0.3, 0.4, 0.6, 0.7, 0.9574519996531308, 0, 89.72821044921875, 2.933301799930632, 5.000000, 17.000000, 3.000000,3.000000,1.000000,6.000000,0.500000,1.000000
11, test, 2, no_probe, 12, 3, 1, 1, 3, 0.6, 0.3, right, 2, 0.3, 0.4, 0.6, 0.7, 1.2895345999859273, 1, , , 6.000000, 18.000000, 1.000000,2.000000,1.000000,6.000000,0.500000,1.000000
11, test, 2, probe, 13, 4, 1, 1, 4, 0.7, 0.3, right, 2, 0.3, 0.4, 0.6, 0.7, 2.0486866999417543, 1, 92.84426879882812, 3.099933700170368, 7.000000, 19.000000, 2.000000,2.000000,1.000000,6.000000,0.500000,1.000000
11, test, 2, no_probe, 14, 4, 1, 1, 4, 0.7, 0.3, right, 2, 0.3, 0.4, 0.6, 0.7, 1.3785951002500951, 0, , , 7.000000, 19.000000, 1.000000,2.000000,1.000000,6.000000,0.500000,1.000000
11, test, 2, probe, 15, 1, 2, 1, 2, 0.3, 0.4, left, 1, 0.3, 0.4, 0.6, 0.7, 2.361070599872619, 1, 87.1549072265625, 2.466645499691367, 8.000000, 20.000000, 2.000000,2.000000,1.000000,6.000000,0.500000,1.000000
11, test, 2, no_probe, 16, 3, 2, 3, 2, 0.6, 0.4, left, 1, 0.3, 0.4, 0.6, 0.7, 1.202556800097227, 1, , , 9.000000, 21.000000, 1.000000,2.000000,1.000000,6.000000,0.500000,1.000000
11, test, 2, probe, 17, 2, 3, 2, 3, 0.4, 0.6, left, 1, 0.3, 0.4, 0.6, 0.7, 2.1413169000297785, 0, 85.70361328125, 2.5500098997727036, 9.000000, 21.000000, 2.000000,2.000000,1.000000,6.000000,0.500000,1.000000
11, test, 2, no_probe, 18, 3, 4, 4, 3, 0.6, 0.7, right, 2, 0.3, 0.4, 0.6, 0.7, 0.5090489997528493, 0, , , 9.000000, 21.000000, 1.000000,3.000000,1.000000,6.000000,0.500000,1.000000
11, test, 2, no_probe, 19, 4, 3, 4, 3, 0.7, 0.6, left, 1, 0.3, 0.4, 0.6, 0.7, 0.5073257996700704, 0, , , 9.000000, 21.000000, 2.000000,3.000000,1.000000,6.000000,0.500000,1.000000
11, test, 2, probe, 20, 4, 2, 4, 2, 0.7, 0.4, left, 1, 0.3, 0.4, 0.6, 0.7, 0.748798499815166, 1, 88.84185791015625, 2.4499808000400662, 10.000000, 22.000000, 3.000000,3.000000,1.000000,6.000000,0.500000,1.000000
11, test, 2, no_probe, 21, 4, 1, 1, 4, 0.7, 0.3, right, 2, 0.3, 0.4, 0.6, 0.7, 3.4126305002719164, 1, , , 11.000000, 23.000000, 1.000000,2.000000,1.000000,6.000000,0.500000,1.000000
11, test, 2, probe, 22, 4, 3, 4, 3, 0.7, 0.6, left, 1, 0.3, 0.4, 0.6, 0.7, 5.18991809990257, 1, 91.8243408203125, 3.049968699924648, 12.000000, 24.000000, 2.000000,2.000000,1.000000,6.000000,0.500000,1.000000
11, test, 2, no_probe, 23, 2, 1, 1, 2, 0.4, 0.3, right, 2, 0.3, 0.4, 0.6, 0.7, 1.7722176001407206, 0, , , 12.000000, 24.000000, 1.000000,2.000000,1.000000,6.000000,0.500000,1.000000
11, test, 2, probe, 24, 4, 3, 4, 3, 0.7, 0.6, left, 1, 0.3, 0.4, 0.6, 0.7, 1.1666679000481963, 1, 88.67343139648438, 2.59997639991343, 13.000000, 25.000000, 2.000000,2.000000,1.000000,6.000000,0.500000,1.000000
11, test, 2, no_probe, 25, 4, 2, 2, 4, 0.7, 0.4, right, 2, 0.3, 0.4, 0.6, 0.7, 2.1805090997368097, 0, , , 13.000000, 25.000000, 1.000000,3.000000,1.000000,6.000000,0.500000,1.000000
11, test, 3, no_probe, 1, 1, 2, 1, 2, 0.3, 0.4, left, 1, 0.3, 0.4, 0.6, 0.7, 1.1836888999678195, 0, , , 0.000000, 25.000000, 1.000000,2.000000,1.000000,6.000000,0.500000,1.000000
11, test, 3, probe, 2, 3, 4, 4, 3, 0.6, 0.7, right, 2, 0.3, 0.4, 0.6, 0.7, 0.8295224998146296, 1, 90.17642211914062, 2.683244299609214, 1.000000, 26.000000, 2.000000,2.000000,1.000000,6.000000,0.500000,1.000000
11, test, 3, no_probe, 3, 3, 4, 3, 4, 0.6, 0.7, left, 1, 0.3, 0.4, 0.6, 0.7, 0.8524803002364933, 0, , , 1.000000, 26.000000, 1.000000,3.000000,1.000000,6.000000,0.500000,1.000000
11, test, 3, no_probe, 4, 2, 3, 3, 2, 0.4, 0.6, right, 2, 0.3, 0.4, 0.6, 0.7, 1.7606052001938224, 1, , , 2.000000, 27.000000, 2.000000,3.000000,1.000000,6.000000,0.500000,1.000000
11, test, 3, probe, 5, 2, 3, 3, 2, 0.4, 0.6, right, 2, 0.3, 0.4, 0.6, 0.7, 1.044386399909854, 1, 91.43136596679688, 2.9332925998605788, 3.000000, 28.000000, 3.000000,3.000000,1.000000,6.000000,0.500000,1.000000
11, test, 3, no_probe, 6, 4, 1, 4, 1, 0.7, 0.3, left, 1, 0.3, 0.4, 0.6, 0.7, 2.0649959999136627, 1, , , 4.000000, 29.000000, 1.000000,2.000000,1.000000,6.000000,0.500000,1.000000
11, test, 3, probe, 7, 3, 1, 3, 1, 0.6, 0.3, left, 1, 0.3, 0.4, 0.6, 0.7, 1.7361439000815153, 1, 89.98251342773438, 2.516629899851978, 5.000000, 30.000000, 2.000000,2.000000,1.000000,6.000000,0.500000,1.000000
11, test, 3, no_probe, 8, 4, 1, 4, 1, 0.7, 0.3, left, 1, 0.3, 0.4, 0.6, 0.7, 1.0299737001769245, 1, , , 6.000000, 31.000000, 1.000000,3.000000,1.000000,6.000000,0.500000,1.000000
11, test, 3, no_probe, 9, 4, 1, 4, 1, 0.7, 0.3, left, 1, 0.3, 0.4, 0.6, 0.7, 0.47052659979090095, 1, , , 7.000000, 32.000000, 2.000000,3.000000,1.000000,6.000000,0.500000,1.000000
11, test, 3, probe, 10, 4, 2, 4, 2, 0.7, 0.4, left, 1, 0.3, 0.4, 0.6, 0.7, 0.5531816999427974, 1, 99.99868774414062, 3.316632100380957, 8.000000, 33.000000, 3.000000,3.000000,1.000000,6.000000,0.500000,1.000000
11, test, 3, no_probe, 11, 4, 3, 4, 3, 0.7, 0.6, left, 1, 0.3, 0.4, 0.6, 0.7, 0.7977256001904607, 1, , , 9.000000, 34.000000, 1.000000,2.000000,1.000000,6.000000,0.500000,1.000000
11, test, 3, probe, 12, 2, 3, 3, 2, 0.4, 0.6, right, 2, 0.3, 0.4, 0.6, 0.7, 1.1080195000395179, 1, 99.9989013671875, 2.800012099556625, 10.000000, 35.000000, 2.000000,2.000000,1.000000,6.000000,0.500000,1.000000
11, test, 3, no_probe, 13, 4, 1, 4, 1, 0.7, 0.3, left, 1, 0.3, 0.4, 0.6, 0.7, 0.7517661000601947, 0, , , 10.000000, 35.000000, 1.000000,3.000000,1.000000,6.000000,0.500000,1.000000
11, test, 3, no_probe, 14, 1, 2, 1, 2, 0.3, 0.4, left, 1, 0.3, 0.4, 0.6, 0.7, 0.6875032996758819, 1, , , 11.000000, 36.000000, 2.000000,3.000000,1.000000,6.000000,0.500000,1.000000
11, test, 3, probe, 15, 2, 3, 2, 3, 0.4, 0.6, left, 1, 0.3, 0.4, 0.6, 0.7, 1.1929897000081837, 0, 98.03836059570312, 2.5332587002776563, 11.000000, 36.000000, 3.000000,3.000000,1.000000,6.000000,0.500000,1.000000
11, test, 3, no_probe, 16, 3, 2, 3, 2, 0.6, 0.4, left, 1, 0.3, 0.4, 0.6, 0.7, 1.252682900056243, 1, , , 12.000000, 37.000000, 1.000000,3.000000,1.000000,6.000000,0.500000,1.000000
11, test, 3, no_probe, 17, 1, 2, 1, 2, 0.3, 0.4, left, 1, 0.3, 0.4, 0.6, 0.7, 0.6841988996602595, 0, , , 12.000000, 37.000000, 2.000000,3.000000,1.000000,6.000000,0.500000,1.000000
11, test, 3, probe, 18, 3, 2, 3, 2, 0.6, 0.4, left, 1, 0.3, 0.4, 0.6, 0.7, 0.7983428998850286, 0, 89.7320556640625, 2.33328179968521, 12.000000, 37.000000, 3.000000,3.000000,1.000000,6.000000,0.500000,1.000000
11, test, 3, no_probe, 19, 3, 2, 3, 2, 0.6, 0.4, left, 1, 0.3, 0.4, 0.6, 0.7, 3.1635592998936772, 1, , , 13.000000, 38.000000, 1.000000,3.000000,1.000000,6.000000,0.500000,1.000000
11, test, 3, no_probe, 20, 3, 4, 4, 3, 0.6, 0.7, right, 2, 0.3, 0.4, 0.6, 0.7, 2.6717491997405887, 1, , , 14.000000, 39.000000, 2.000000,3.000000,1.000000,6.000000,0.500000,1.000000
11, test, 3, probe, 21, 3, 2, 3, 2, 0.6, 0.4, left, 1, 0.3, 0.4, 0.6, 0.7, 1.1295563001185656, 0, 88.25970458984375, 2.199978099670261, 14.000000, 39.000000, 3.000000,3.000000,1.000000,6.000000,0.500000,1.000000
11, test, 3, no_probe, 22, 3, 4, 4, 3, 0.6, 0.7, right, 2, 0.3, 0.4, 0.6, 0.7, 0.821028399746865, 0, , , 14.000000, 39.000000, 1.000000,2.000000,1.000000,6.000000,0.500000,1.000000
11, test, 3, probe, 23, 1, 2, 1, 2, 0.3, 0.4, left, 1, 0.3, 0.4, 0.6, 0.7, 1.9853114001452923, 0, 94.70907592773438, 2.4499475001357496, 14.000000, 39.000000, 2.000000,2.000000,1.000000,6.000000,0.500000,1.000000
11, test, 3, no_probe, 24, 1, 3, 1, 3, 0.3, 0.6, left, 1, 0.3, 0.4, 0.6, 0.7, 1.0959263001568615, 0, , , 14.000000, 39.000000, 1.000000,2.000000,1.000000,6.000000,0.500000,1.000000
11, test, 3, probe, 25, 3, 1, 1, 3, 0.6, 0.3, right, 2, 0.3, 0.4, 0.6, 0.7, 0.6097856000997126, 1, 92.97897338867188, 2.283323099836707, 15.000000, 40.000000, 2.000000,2.000000,1.000000,6.000000,0.500000,1.000000
11, test, 4, no_probe, 1, 4, 3, 4, 3, 0.7, 0.6, left, 1, 0.3, 0.4, 0.6, 0.7, 2.3781747999601066, 0, , , 0.000000, 40.000000, 1.000000,3.000000,1.000000,6.000000,0.500000,1.000000
11, test, 4, no_probe, 2, 1, 4, 1, 4, 0.3, 0.7, left, 1, 0.3, 0.4, 0.6, 0.7, 2.3807401000522077, 0, , , 0.000000, 40.000000, 2.000000,3.000000,1.000000,6.000000,0.500000,1.000000
11, test, 4, probe, 3, 2, 1, 1, 2, 0.4, 0.3, right, 2, 0.3, 0.4, 0.6, 0.7, 1.2114077000878751, 1, 93.32769775390625, 3.0329276002012193, 1.000000, 41.000000, 3.000000,3.000000,1.000000,6.000000,0.500000,1.000000
11, test, 4, no_probe, 4, 1, 2, 2, 1, 0.3, 0.4, right, 2, 0.3, 0.4, 0.6, 0.7, 0.6357951001264155, 1, , , 2.000000, 42.000000, 1.000000,3.000000,1.000000,6.000000,0.500000,1.000000
11, test, 4, no_probe, 5, 3, 4, 4, 3, 0.6, 0.7, right, 2, 0.3, 0.4, 0.6, 0.7, 2.149096299894154, 0, , , 2.000000, 42.000000, 2.000000,3.000000,1.000000,6.000000,0.500000,1.000000
11, test, 4, probe, 6, 4, 1, 4, 1, 0.7, 0.3, left, 1, 0.3, 0.4, 0.6, 0.7, 0.4792390000075102, 0, 94.08673095703125, 2.050002499949187, 2.000000, 42.000000, 3.000000,3.000000,1.000000,6.000000,0.500000,1.000000
11, test, 4, no_probe, 7, 1, 3, 1, 3, 0.3, 0.6, left, 1, 0.3, 0.4, 0.6, 0.7, 0.9228424001485109, 1, , , 3.000000, 43.000000, 1.000000,3.000000,1.000000,6.000000,0.500000,1.000000
11, test, 4, no_probe, 8, 1, 2, 2, 1, 0.3, 0.4, right, 2, 0.3, 0.4, 0.6, 0.7, 1.1593463998287916, 1, , , 4.000000, 44.000000, 2.000000,3.000000,1.000000,6.000000,0.500000,1.000000
11, test, 4, probe, 9, 2, 4, 4, 2, 0.4, 0.7, right, 2, 0.3, 0.4, 0.6, 0.7, 3.042141200043261, 0, 87.41415405273438, 2.183300799690187, 4.000000, 44.000000, 3.000000,3.000000,1.000000,6.000000,0.500000,1.000000
11, test, 4, no_probe, 10, 4, 3, 3, 4, 0.7, 0.6, right, 2, 0.3, 0.4, 0.6, 0.7, 2.5030999002046883, 1, , , 5.000000, 45.000000, 1.000000,3.000000,1.000000,6.000000,0.500000,1.000000
11, test, 4, no_probe, 11, 1, 3, 3, 1, 0.3, 0.6, right, 2, 0.3, 0.4, 0.6, 0.7, 0.7681332998909056, 0, , , 5.000000, 45.000000, 2.000000,3.000000,1.000000,6.000000,0.500000,1.000000
11, test, 4, probe, 12, 4, 2, 4, 2, 0.7, 0.4, left, 1, 0.3, 0.4, 0.6, 0.7, 0.9658707003109157, 1, 92.87252807617188, 2.7166478000581264, 6.000000, 46.000000, 3.000000,3.000000,1.000000,6.000000,0.500000,1.000000
11, test, 4, no_probe, 13, 1, 4, 1, 4, 0.3, 0.7, left, 1, 0.3, 0.4, 0.6, 0.7, 2.9743071999400854, 0, , , 6.000000, 46.000000, 1.000000,3.000000,1.000000,6.000000,0.500000,1.000000
11, test, 4, no_probe, 14, 1, 3, 3, 1, 0.3, 0.6, right, 2, 0.3, 0.4, 0.6, 0.7, 2.3728663004003465, 0, , , 6.000000, 46.000000, 2.000000,3.000000,1.000000,6.000000,0.500000,1.000000
11, test, 4, probe, 15, 2, 4, 2, 4, 0.4, 0.7, left, 1, 0.3, 0.4, 0.6, 0.7, 1.3767577996477485, 0, 77.13449096679688, 1.8499694000929594, 6.000000, 46.000000, 3.000000,3.000000,1.000000,6.000000,0.500000,1.000000
11, test, 4, no_probe, 16, 3, 1, 1, 3, 0.6, 0.3, right, 2, 0.3, 0.4, 0.6, 0.7, 1.1513820001855493, 1, , , 7.000000, 47.000000, 1.000000,3.000000,1.000000,6.000000,0.500000,1.000000
11, test, 4, no_probe, 17, 3, 1, 3, 1, 0.6, 0.3, left, 1, 0.3, 0.4, 0.6, 0.7, 1.2801414001733065, 0, , , 7.000000, 47.000000, 2.000000,3.000000,1.000000,6.000000,0.500000,1.000000
11, test, 4, probe, 18, 3, 2, 2, 3, 0.6, 0.4, right, 2, 0.3, 0.4, 0.6, 0.7, 0.5371476002037525, 0, 87.94015502929688, 2.1666271998547018, 7.000000, 47.000000, 3.000000,3.000000,1.000000,6.000000,0.500000,1.000000
11, test, 4, no_probe, 19, 3, 4, 3, 4, 0.6, 0.7, left, 1, 0.3, 0.4, 0.6, 0.7, 1.1565455999225378, 0, , , 7.000000, 47.000000, 1.000000,3.000000,1.000000,6.000000,0.500000,1.000000
11, test, 4, no_probe, 20, 4, 1, 1, 4, 0.7, 0.3, right, 2, 0.3, 0.4, 0.6, 0.7, 0.8734486000612378, 1, , , 8.000000, 48.000000, 2.000000,3.000000,1.000000,6.000000,0.500000,1.000000
11, test, 4, probe, 21, 4, 3, 3, 4, 0.7, 0.6, right, 2, 0.3, 0.4, 0.6, 0.7, 0.41171880019828677, 0, 90.05255126953125, 2.333301099948585, 8.000000, 48.000000, 3.000000,3.000000,1.000000,6.000000,0.500000,1.000000
11, test, 4, no_probe, 22, 4, 3, 3, 4, 0.7, 0.6, right, 2, 0.3, 0.4, 0.6, 0.7, 0.6572847999632359, 1, , , 9.000000, 49.000000, 1.000000,3.000000,1.000000,6.000000,0.500000,1.000000
11, test, 4, no_probe, 23, 3, 2, 3, 2, 0.6, 0.4, left, 1, 0.3, 0.4, 0.6, 0.7, 1.8858006000518799, 0, , , 9.000000, 49.000000, 2.000000,3.000000,1.000000,6.000000,0.500000,1.000000
11, test, 4, probe, 24, 1, 2, 2, 1, 0.3, 0.4, right, 2, 0.3, 0.4, 0.6, 0.7, 1.0060755000449717, 0, 90.91864013671875, 3.2499266997911036, 9.000000, 49.000000, 3.000000,3.000000,1.000000,6.000000,0.500000,1.000000
11, test, 4, no_probe, 25, 1, 2, 1, 2, 0.3, 0.4, left, 1, 0.3, 0.4, 0.6, 0.7, 1.6129989000037313, 1, , , 10.000000, 50.000000, 1.000000,2.000000,1.000000,6.000000,0.500000,1.000000
11, test, 5, no_probe, 1, 1, 2, 2, 1, 0.3, 0.4, right, 2, 0.3, 0.4, 0.6, 0.7, 1.0017647999338806, 1, , , 1.000000, 51.000000, 1.000000,2.000000,1.000000,6.000000,0.500000,1.000000
11, test, 5, probe, 2, 4, 3, 4, 3, 0.7, 0.6, left, 1, 0.3, 0.4, 0.6, 0.7, 2.5356557997874916, 1, 96.00454711914062, 2.883285599760711, 2.000000, 52.000000, 2.000000,2.000000,1.000000,6.000000,0.500000,1.000000
11, test, 5, no_probe, 3, 4, 1, 4, 1, 0.7, 0.3, left, 1, 0.3, 0.4, 0.6, 0.7, 1.1662573995999992, 0, , , 2.000000, 52.000000, 1.000000,2.000000,1.000000,6.000000,0.500000,1.000000
11, test, 5, probe, 4, 2, 1, 1, 2, 0.4, 0.3, right, 2, 0.3, 0.4, 0.6, 0.7, 1.6568417996168137, 1, 99.76800537109375, 3.11662229988724, 3.000000, 53.000000, 2.000000,2.000000,1.000000,6.000000,0.500000,1.000000
11, test, 5, no_probe, 5, 1, 4, 4, 1, 0.3, 0.7, right, 2, 0.3, 0.4, 0.6, 0.7, 1.6303071002475917, 0, , , 3.000000, 53.000000, 1.000000,2.000000,1.000000,6.000000,0.500000,1.000000
11, test, 5, probe, 6, 4, 1, 4, 1, 0.7, 0.3, left, 1, 0.3, 0.4, 0.6, 0.7, 1.295239600352943, 1, 97.52597045898438, 2.2499767001718283, 4.000000, 54.000000, 2.000000,2.000000,1.000000,6.000000,0.500000,1.000000
11, test, 5, no_probe, 7, 4, 1, 1, 4, 0.7, 0.3, right, 2, 0.3, 0.4, 0.6, 0.7, 1.280742600094527, 1, , , 5.000000, 55.000000, 1.000000,3.000000,1.000000,6.000000,0.500000,1.000000
11, test, 5, no_probe, 8, 4, 1, 4, 1, 0.7, 0.3, left, 1, 0.3, 0.4, 0.6, 0.7, 0.4958954001776874, 1, , , 6.000000, 56.000000, 2.000000,3.000000,1.000000,6.000000,0.500000,1.000000
11, test, 5, probe, 9, 1, 2, 1, 2, 0.3, 0.4, left, 1, 0.3, 0.4, 0.6, 0.7, 1.7837859001010656, 0, 98.5047607421875, 3.0832966999150813, 6.000000, 56.000000, 3.000000,3.000000,1.000000,6.000000,0.500000,1.000000
11, test, 5, no_probe, 10, 2, 3, 2, 3, 0.4, 0.6, left, 1, 0.3, 0.4, 0.6, 0.7, 1.925152599811554, 0, , , 6.000000, 56.000000, 1.000000,2.000000,1.000000,6.000000,0.500000,1.000000
11, test, 5, probe, 11, 3, 4, 4, 3, 0.6, 0.7, right, 2, 0.3, 0.4, 0.6, 0.7, 0.7705093999393284, 0, 98.42556762695312, 2.1666212999261916, 6.000000, 56.000000, 2.000000,2.000000,1.000000,6.000000,0.500000,1.000000
11, test, 5, no_probe, 12, 2, 1, 1, 2, 0.4, 0.3, right, 2, 0.3, 0.4, 0.6, 0.7, 1.6214560996741056, 1, , , 7.000000, 57.000000, 1.000000,3.000000,1.000000,6.000000,0.500000,1.000000
11, test, 5, no_probe, 13, 4, 3, 3, 4, 0.7, 0.6, right, 2, 0.3, 0.4, 0.6, 0.7, 0.7309492998756468, 0, , , 7.000000, 57.000000, 2.000000,3.000000,1.000000,6.000000,0.500000,1.000000
11, test, 5, probe, 14, 2, 3, 2, 3, 0.4, 0.6, left, 1, 0.3, 0.4, 0.6, 0.7, 1.082999300211668, 0, 97.70736694335938, 2.699990200344473, 7.000000, 57.000000, 3.000000,3.000000,1.000000,6.000000,0.500000,1.000000
11, test, 5, no_probe, 15, 1, 3, 1, 3, 0.3, 0.6, left, 1, 0.3, 0.4, 0.6, 0.7, 5.871695500332862, 0, , , 7.000000, 57.000000, 1.000000,2.000000,1.000000,6.000000,0.500000,1.000000
11, test, 5, probe, 16, 4, 3, 4, 3, 0.7, 0.6, left, 1, 0.3, 0.4, 0.6, 0.7, 1.065654099918902, 1, 92.18133544921875, 2.2666736003011465, 8.000000, 58.000000, 2.000000,2.000000,1.000000,6.000000,0.500000,1.000000
11, test, 5, no_probe, 17, 3, 1, 1, 3, 0.6, 0.3, right, 2, 0.3, 0.4, 0.6, 0.7, 1.0443277000449598, 1, , , 9.000000, 59.000000, 1.000000,3.000000,1.000000,6.000000,0.500000,1.000000
11, test, 5, no_probe, 18, 3, 1, 3, 1, 0.6, 0.3, left, 1, 0.3, 0.4, 0.6, 0.7, 0.9837452000938356, 1, , , 10.000000, 60.000000, 2.000000,3.000000,1.000000,6.000000,0.500000,1.000000
11, test, 5, probe, 19, 2, 4, 4, 2, 0.4, 0.7, right, 2, 0.3, 0.4, 0.6, 0.7, 0.7540420000441372, 0, 99.98788452148438, 2.3999672001227736, 10.000000, 60.000000, 3.000000,3.000000,1.000000,6.000000,0.500000,1.000000
11, test, 5, no_probe, 20, 2, 1, 2, 1, 0.4, 0.3, left, 1, 0.3, 0.4, 0.6, 0.7, 1.1837906995788217, 0, , , 10.000000, 60.000000, 1.000000,3.000000,1.000000,6.000000,0.500000,1.000000
11, test, 5, no_probe, 21, 1, 2, 2, 1, 0.3, 0.4, right, 2, 0.3, 0.4, 0.6, 0.7, 3.4835030999965966, 0, , , 10.000000, 60.000000, 2.000000,3.000000,1.000000,6.000000,0.500000,1.000000
11, test, 5, probe, 22, 4, 3, 4, 3, 0.7, 0.6, left, 1, 0.3, 0.4, 0.6, 0.7, 1.153473500162363, 1, 90.6832275390625, 2.133323600050062, 11.000000, 61.000000, 3.000000,3.000000,1.000000,6.000000,0.500000,1.000000
11, test, 5, no_probe, 23, 4, 3, 4, 3, 0.7, 0.6, left, 1, 0.3, 0.4, 0.6, 0.7, 1.608725800178945, 1, , , 12.000000, 62.000000, 1.000000,3.000000,1.000000,6.000000,0.500000,1.000000
11, test, 5, no_probe, 24, 2, 1, 1, 2, 0.4, 0.3, right, 2, 0.3, 0.4, 0.6, 0.7, 2.6556574003770947, 0, , , 12.000000, 62.000000, 2.000000,3.000000,1.000000,6.000000,0.500000,1.000000
11, test, 5, probe, 25, 4, 1, 1, 4, 0.7, 0.3, right, 2, 0.3, 0.4, 0.6, 0.7, 1.4020422999747097, 1, 92.37283325195312, 2.28331289999187, 13.000000, 63.000000, 3.000000,3.000000,1.000000,6.000000,0.500000,1.000000
11, test, 6, no_probe, 1, 1, 3, 3, 1, 0.3, 0.6, right, 2, 0.3, 0.4, 0.6, 0.7, 3.0008639004081488, 0, , , 0.000000, 63.000000, 1.000000,2.000000,1.000000,6.000000,0.500000,1.000000
11, test, 6, probe, 2, 2, 3, 2, 3, 0.4, 0.6, left, 1, 0.3, 0.4, 0.6, 0.7, 2.0754182999953628, 0, 91.97543334960938, 2.116586099844426, 0.000000, 63.000000, 2.000000,2.000000,1.000000,6.000000,0.500000,1.000000
11, test, 6, no_probe, 3, 3, 2, 2, 3, 0.6, 0.4, right, 2, 0.3, 0.4, 0.6, 0.7, 0.9039837000891566, 1, , , 1.000000, 64.000000, 1.000000,2.000000,1.000000,6.000000,0.500000,1.000000
11, test, 6, probe, 4, 2, 1, 2, 1, 0.4, 0.3, left, 1, 0.3, 0.4, 0.6, 0.7, 3.3839920996688306, 1, 94.77984619140625, 1.8666350999847054, 2.000000, 65.000000, 2.000000,2.000000,1.000000,6.000000,0.500000,1.000000
11, test, 6, no_probe, 5, 3, 2, 3, 2, 0.6, 0.4, left, 1, 0.3, 0.4, 0.6, 0.7, 2.885727600194514, 1, , , 3.000000, 66.000000, 1.000000,3.000000,1.000000,6.000000,0.500000,1.000000
11, test, 6, no_probe, 6, 2, 4, 4, 2, 0.4, 0.7, right, 2, 0.3, 0.4, 0.6, 0.7, 1.94537919992581, 0, , , 3.000000, 66.000000, 2.000000,3.000000,1.000000,6.000000,0.500000,1.000000
11, test, 6, probe, 7, 4, 2, 4, 2, 0.7, 0.4, left, 1, 0.3, 0.4, 0.6, 0.7, 0.6560223000124097, 1, 90.6392822265625, 2.716669199988246, 4.000000, 67.000000, 3.000000,3.000000,1.000000,6.000000,0.500000,1.000000
11, test, 6, no_probe, 8, 3, 4, 3, 4, 0.6, 0.7, left, 1, 0.3, 0.4, 0.6, 0.7, 1.196892200037837, 1, , , 5.000000, 68.000000, 1.000000,3.000000,1.000000,6.000000,0.500000,1.000000
11, test, 6, no_probe, 9, 3, 2, 2, 3, 0.6, 0.4, right, 2, 0.3, 0.4, 0.6, 0.7, 0.9469741000793874, 1, , , 6.000000, 69.000000, 2.000000,3.000000,1.000000,6.000000,0.500000,1.000000
11, test, 6, probe, 10, 1, 2, 1, 2, 0.3, 0.4, left, 1, 0.3, 0.4, 0.6, 0.7, 5.502170499879867, 0, 91.57440185546875, 2.5166120999492705, 6.000000, 69.000000, 3.000000,3.000000,1.000000,6.000000,0.500000,1.000000
11, test, 6, no_probe, 11, 3, 2, 2, 3, 0.6, 0.4, right, 2, 0.3, 0.4, 0.6, 0.7, 0.9853718997910619, 1, , , 7.000000, 70.000000, 1.000000,2.000000,1.000000,6.000000,0.500000,1.000000
11, test, 6, probe, 12, 1, 4, 1, 4, 0.3, 0.7, left, 1, 0.3, 0.4, 0.6, 0.7, 1.2706846999935806, 0, 98.24642944335938, 1.933315200265497, 7.000000, 70.000000, 2.000000,2.000000,1.000000,6.000000,0.500000,1.000000
11, test, 6, no_probe, 13, 3, 2, 2, 3, 0.6, 0.4, right, 2, 0.3, 0.4, 0.6, 0.7, 0.986969499848783, 1, , , 8.000000, 71.000000, 1.000000,2.000000,1.000000,6.000000,0.500000,1.000000
11, test, 6, probe, 14, 4, 2, 4, 2, 0.7, 0.4, left, 1, 0.3, 0.4, 0.6, 0.7, 1.2145741996355355, 1, 93.93106079101562, 1.8832812001928687, 9.000000, 72.000000, 2.000000,2.000000,1.000000,6.000000,0.500000,1.000000
11, test, 6, no_probe, 15, 2, 1, 2, 1, 0.4, 0.3, left, 1, 0.3, 0.4, 0.6, 0.7, 1.4770517996512353, 1, , , 10.000000, 73.000000, 1.000000,2.000000,1.000000,6.000000,0.500000,1.000000
11, test, 6, probe, 16, 3, 4, 3, 4, 0.6, 0.7, left, 1, 0.3, 0.4, 0.6, 0.7, 0.9156642998568714, 1, 89.50027465820312, 1.9665855998173356, 11.000000, 74.000000, 2.000000,2.000000,1.000000,6.000000,0.500000,1.000000
11, test, 6, no_probe, 17, 4, 2, 2, 4, 0.7, 0.4, right, 2, 0.3, 0.4, 0.6, 0.7, 1.5460826996713877, 1, , , 12.000000, 75.000000, 1.000000,3.000000,1.000000,6.000000,0.500000,1.000000
11, test, 6, no_probe, 18, 4, 3, 4, 3, 0.7, 0.6, left, 1, 0.3, 0.4, 0.6, 0.7, 0.6044899998232722, 0, , , 12.000000, 75.000000, 2.000000,3.000000,1.000000,6.000000,0.500000,1.000000
11, test, 6, probe, 19, 4, 1, 1, 4, 0.7, 0.3, right, 2, 0.3, 0.4, 0.6, 0.7, 0.8947856002487242, 1, 92.8209228515625, 2.2166196000762284, 13.000000, 76.000000, 3.000000,3.000000,1.000000,6.000000,0.500000,1.000000
11, test, 6, no_probe, 20, 3, 1, 3, 1, 0.6, 0.3, left, 1, 0.3, 0.4, 0.6, 0.7, 2.7658005002886057, 0, , , 13.000000, 76.000000, 1.000000,3.000000,1.000000,6.000000,0.500000,1.000000
11, test, 6, no_probe, 21, 2, 1, 2, 1, 0.4, 0.3, left, 1, 0.3, 0.4, 0.6, 0.7, 1.5848242999054492, 0, , , 13.000000, 76.000000, 2.000000,3.000000,1.000000,6.000000,0.500000,1.000000
11, test, 6, probe, 22, 4, 3, 4, 3, 0.7, 0.6, left, 1, 0.3, 0.4, 0.6, 0.7, 0.9854841004125774, 0, 82.2393798828125, 1.7166416998952627, 13.000000, 76.000000, 3.000000,3.000000,1.000000,6.000000,0.500000,1.000000
11, test, 6, no_probe, 23, 2, 3, 3, 2, 0.4, 0.6, right, 2, 0.3, 0.4, 0.6, 0.7, 1.4254740998148918, 1, , , 14.000000, 77.000000, 1.000000,3.000000,1.000000,6.000000,0.500000,1.000000
11, test, 6, no_probe, 24, 4, 2, 4, 2, 0.7, 0.4, left, 1, 0.3, 0.4, 0.6, 0.7, 0.6195045998319983, 1, , , 15.000000, 78.000000, 2.000000,3.000000,1.000000,6.000000,0.500000,1.000000
11, test, 6, probe, 25, 2, 3, 2, 3, 0.4, 0.6, left, 1, 0.3, 0.4, 0.6, 0.7, 1.6431748997420073, 0, 87.83319091796875, 2.5166138000786304, 15.000000, 78.000000, 3.000000,3.000000,1.000000,6.000000,0.500000,1.000000
11, test, 7, no_probe, 1, 1, 4, 1, 4, 0.3, 0.7, left, 1, 0.3, 0.4, 0.6, 0.7, 1.27877359976992, 0, , , 0.000000, 78.000000, 1.000000,2.000000,1.000000,6.000000,0.500000,1.000000
11, test, 7, probe, 2, 4, 3, 3, 4, 0.7, 0.6, right, 2, 0.3, 0.4, 0.6, 0.7, 1.3767466000281274, 0, 86.52777099609375, 2.1499950997531414, 0.000000, 78.000000, 2.000000,2.000000,1.000000,6.000000,0.500000,1.000000
11, test, 7, no_probe, 3, 2, 1, 1, 2, 0.4, 0.3, right, 2, 0.3, 0.4, 0.6, 0.7, 2.4451172999106348, 1, , , 1.000000, 79.000000, 1.000000,3.000000,1.000000,6.000000,0.500000,1.000000
11, test, 7, no_probe, 4, 4, 1, 4, 1, 0.7, 0.3, left, 1, 0.3, 0.4, 0.6, 0.7, 2.743614099919796, 0, , , 1.000000, 79.000000, 2.000000,3.000000,1.000000,6.000000,0.500000,1.000000
11, test, 7, probe, 5, 1, 3, 3, 1, 0.3, 0.6, right, 2, 0.3, 0.4, 0.6, 0.7, 1.3799866000190377, 0, 67.13650512695312, 1.6333293998613954, 1.000000, 79.000000, 3.000000,3.000000,1.000000,6.000000,0.500000,1.000000
11, test, 7, no_probe, 6, 4, 3, 4, 3, 0.7, 0.6, left, 1, 0.3, 0.4, 0.6, 0.7, 0.6027628998272121, 0, , , 1.000000, 79.000000, 1.000000,3.000000,1.000000,6.000000,0.500000,1.000000
11, test, 7, no_probe, 7, 1, 4, 4, 1, 0.3, 0.7, right, 2, 0.3, 0.4, 0.6, 0.7, 0.48921719985082746, 0, , , 1.000000, 79.000000, 2.000000,3.000000,1.000000,6.000000,0.500000,1.000000
11, test, 7, probe, 8, 3, 4, 3, 4, 0.6, 0.7, left, 1, 0.3, 0.4, 0.6, 0.7, 0.33804470021277666, 1, 58.427398681640625, 1.4333282001316547, 2.000000, 80.000000, 3.000000,3.000000,1.000000,6.000000,0.500000,1.000000
11, test, 7, no_probe, 9, 2, 1, 1, 2, 0.4, 0.3, right, 2, 0.3, 0.4, 0.6, 0.7, 2.368559299968183, 1, , , 3.000000, 81.000000, 1.000000,2.000000,1.000000,6.000000,0.500000,1.000000
11, test, 7, probe, 10, 3, 4, 3, 4, 0.6, 0.7, left, 1, 0.3, 0.4, 0.6, 0.7, 5.007745099719614, 0, 74.34701538085938, 1.583288099616766, 3.000000, 81.000000, 2.000000,2.000000,1.000000,6.000000,0.500000,1.000000
11, test, 7, no_probe, 11, 2, 4, 4, 2, 0.4, 0.7, right, 2, 0.3, 0.4, 0.6, 0.7, 1.20008850004524, 0, , , 3.000000, 81.000000, 1.000000,2.000000,1.000000,6.000000,0.500000,1.000000
11, test, 7, probe, 12, 4, 2, 4, 2, 0.7, 0.4, left, 1, 0.3, 0.4, 0.6, 0.7, 0.3684545001015067, 1, 85.89779663085938, 2.066635699942708, 4.000000, 82.000000, 2.000000,2.000000,1.000000,6.000000,0.500000,1.000000
11, test, 7, no_probe, 13, 4, 1, 4, 1, 0.7, 0.3, left, 1, 0.3, 0.4, 0.6, 0.7, 2.124777200166136, 1, , , 5.000000, 83.000000, 1.000000,2.000000,1.000000,6.000000,0.500000,1.000000
11, test, 7, probe, 14, 2, 1, 2, 1, 0.4, 0.3, left, 1, 0.3, 0.4, 0.6, 0.7, 1.3728411002084613, 0, 77.96426391601562, 2.2499564001336694, 5.000000, 83.000000, 2.000000,2.000000,1.000000,6.000000,0.500000,1.000000
11, test, 7, no_probe, 15, 2, 3, 2, 3, 0.4, 0.6, left, 1, 0.3, 0.4, 0.6, 0.7, 1.1789886001497507, 0, , , 5.000000, 83.000000, 1.000000,3.000000,1.000000,6.000000,0.500000,1.000000
11, test, 7, no_probe, 16, 4, 1, 4, 1, 0.7, 0.3, left, 1, 0.3, 0.4, 0.6, 0.7, 1.0216904999688268, 1, , , 6.000000, 84.000000, 2.000000,3.000000,1.000000,6.000000,0.500000,1.000000
11, test, 7, probe, 17, 3, 2, 3, 2, 0.6, 0.4, left, 1, 0.3, 0.4, 0.6, 0.7, 1.7669943999499083, 0, 71.79135131835938, 7.549886499997228, 6.000000, 84.000000, 3.000000,3.000000,1.000000,6.000000,0.500000,1.000000
11, test, 7, no_probe, 18, 2, 1, 2, 1, 0.4, 0.3, left, 1, 0.3, 0.4, 0.6, 0.7, 2.5427207998000085, 0, , , 6.000000, 84.000000, 1.000000,2.000000,1.000000,6.000000,0.500000,1.000000
11, test, 7, probe, 19, 1, 3, 3, 1, 0.3, 0.6, right, 2, 0.3, 0.4, 0.6, 0.7, 0.5270217000506818, 0, 68.733154296875, 1.3333029001951218, 6.000000, 84.000000, 2.000000,2.000000,1.000000,6.000000,0.500000,1.000000
11, test, 7, no_probe, 20, 2, 1, 1, 2, 0.4, 0.3, right, 2, 0.3, 0.4, 0.6, 0.7, 0.5527505995705724, 0, , , 6.000000, 84.000000, 1.000000,3.000000,1.000000,6.000000,0.500000,1.000000
11, test, 7, no_probe, 21, 4, 2, 2, 4, 0.7, 0.4, right, 2, 0.3, 0.4, 0.6, 0.7, 0.784035500138998, 1, , , 7.000000, 85.000000, 2.000000,3.000000,1.000000,6.000000,0.500000,1.000000
11, test, 7, probe, 22, 4, 2, 4, 2, 0.7, 0.4, left, 1, 0.3, 0.4, 0.6, 0.7, 3.713624599855393, 0, 57.987396240234375, 1.583298500161618, 7.000000, 85.000000, 3.000000,3.000000,1.000000,6.000000,0.500000,1.000000
11, test, 7, no_probe, 23, 1, 2, 1, 2, 0.3, 0.4, left, 1, 0.3, 0.4, 0.6, 0.7, 0.9506880999542773, 1, , , 8.000000, 86.000000, 1.000000,2.000000,1.000000,6.000000,0.500000,1.000000
11, test, 7, probe, 24, 3, 4, 3, 4, 0.6, 0.7, left, 1, 0.3, 0.4, 0.6, 0.7, 1.485021899919957, 1, 69.68533325195312, 1.916584299877286, 9.000000, 87.000000, 2.000000,2.000000,1.000000,6.000000,0.500000,1.000000
11, test, 7, no_probe, 25, 3, 1, 1, 3, 0.6, 0.3, right, 2, 0.3, 0.4, 0.6, 0.7, 2.201270299963653, 1, , , 10.000000, 88.000000, 1.000000,2.000000,1.000000,6.000000,0.500000,1.000000
11, test, 8, no_probe, 1, 4, 2, 4, 2, 0.7, 0.4, left, 1, 0.3, 0.4, 0.6, 0.7, 1.4830142999999225, 1, , , 1.000000, 89.000000, 1.000000,3.000000,1.000000,6.000000,0.500000,1.000000
11, test, 8, no_probe, 2, 3, 2, 2, 3, 0.6, 0.4, right, 2, 0.3, 0.4, 0.6, 0.7, 1.596659699920565, 0, , , 1.000000, 89.000000, 2.000000,3.000000,1.000000,6.000000,0.500000,1.000000
11, test, 8, probe, 3, 4, 3, 3, 4, 0.7, 0.6, right, 2, 0.3, 0.4, 0.6, 0.7, 1.389510199893266, 1, 76.06741333007812, 1.7995995003730059, 2.000000, 90.000000, 3.000000,3.000000,1.000000,6.000000,0.500000,1.000000
11, test, 8, no_probe, 4, 4, 2, 4, 2, 0.7, 0.4, left, 1, 0.3, 0.4, 0.6, 0.7, 1.1063418998382986, 1, , , 3.000000, 91.000000, 1.000000,3.000000,1.000000,6.000000,0.500000,1.000000
11, test, 8, no_probe, 5, 4, 2, 4, 2, 0.7, 0.4, left, 1, 0.3, 0.4, 0.6, 0.7, 0.49584189988672733, 1, , , 4.000000, 92.000000, 2.000000,3.000000,1.000000,6.000000,0.500000,1.000000
11, test, 8, probe, 6, 4, 2, 2, 4, 0.7, 0.4, right, 2, 0.3, 0.4, 0.6, 0.7, 0.6143330000340939, 0, 66.92916870117188, 1.5166330998763442, 4.000000, 92.000000, 3.000000,3.000000,1.000000,6.000000,0.500000,1.000000
11, test, 8, no_probe, 7, 3, 2, 2, 3, 0.6, 0.4, right, 2, 0.3, 0.4, 0.6, 0.7, 0.7410725001245737, 1, , , 5.000000, 93.000000, 1.000000,2.000000,1.000000,6.000000,0.500000,1.000000
11, test, 8, probe, 8, 4, 1, 1, 4, 0.7, 0.3, right, 2, 0.3, 0.4, 0.6, 0.7, 1.6153712999075651, 1, 75.64849853515625, 1.5999616999179125, 6.000000, 94.000000, 2.000000,2.000000,1.000000,6.000000,0.500000,1.000000
11, test, 8, no_probe, 9, 3, 1, 1, 3, 0.6, 0.3, right, 2, 0.3, 0.4, 0.6, 0.7, 2.1602731002494693, 1, , , 7.000000, 95.000000, 1.000000,3.000000,1.000000,6.000000,0.500000,1.000000
11, test, 8, no_probe, 10, 3, 1, 1, 3, 0.6, 0.3, right, 2, 0.3, 0.4, 0.6, 0.7, 0.7560451999306679, 1, , , 8.000000, 96.000000, 2.000000,3.000000,1.000000,6.000000,0.500000,1.000000
11, test, 8, probe, 11, 4, 3, 3, 4, 0.7, 0.6, right, 2, 0.3, 0.4, 0.6, 0.7, 1.2858894998207688, 0, 71.6231689453125, 1.9665986998006701, 8.000000, 96.000000, 3.000000,3.000000,1.000000,6.000000,0.500000,1.000000
11, test, 8, no_probe, 12, 2, 4, 2, 4, 0.4, 0.7, left, 1, 0.3, 0.4, 0.6, 0.7, 1.0360989002510905, 0, , , 8.000000, 96.000000, 1.000000,3.000000,1.000000,6.000000,0.500000,1.000000
11, test, 8, no_probe, 13, 1, 2, 1, 2, 0.3, 0.4, left, 1, 0.3, 0.4, 0.6, 0.7, 1.7411925001069903, 0, , , 8.000000, 96.000000, 2.000000,3.000000,1.000000,6.000000,0.500000,1.000000
11, test, 8, probe, 14, 4, 1, 1, 4, 0.7, 0.3, right, 2, 0.3, 0.4, 0.6, 0.7, 0.6609449000097811, 1, 77.49392700195312, 2.5499657997861505, 9.000000, 97.000000, 3.000000,3.000000,1.000000,6.000000,0.500000,1.000000
11, test, 8, no_probe, 15, 4, 3, 4, 3, 0.7, 0.6, left, 1, 0.3, 0.4, 0.6, 0.7, 0.9801441002637148, 0, , , 9.000000, 97.000000, 1.000000,3.000000,1.000000,6.000000,0.500000,1.000000
11, test, 8, no_probe, 16, 1, 4, 1, 4, 0.3, 0.7, left, 1, 0.3, 0.4, 0.6, 0.7, 1.0262164999730885, 0, , , 9.000000, 97.000000, 2.000000,3.000000,1.000000,6.000000,0.500000,1.000000
11, test, 8, probe, 17, 4, 3, 3, 4, 0.7, 0.6, right, 2, 0.3, 0.4, 0.6, 0.7, 0.27112479973584414, 0, 61.02679443359375, 2.5333120999857783, 9.000000, 97.000000, 3.000000,3.000000,1.000000,6.000000,0.500000,1.000000
11, test, 8, no_probe, 18, 4, 3, 4, 3, 0.7, 0.6, left, 1, 0.3, 0.4, 0.6, 0.7, 0.5629524998366833, 0, , , 9.000000, 97.000000, 1.000000,2.000000,1.000000,6.000000,0.500000,1.000000
11, test, 8, probe, 19, 2, 4, 4, 2, 0.4, 0.7, right, 2, 0.3, 0.4, 0.6, 0.7, 1.062366200145334, 1, 69.19186401367188, 1.450020399875939, 10.000000, 98.000000, 2.000000,2.000000,1.000000,6.000000,0.500000,1.000000
11, test, 8, no_probe, 20, 4, 3, 4, 3, 0.7, 0.6, left, 1, 0.3, 0.4, 0.6, 0.7, 0.6063402998261154, 1, , , 11.000000, 99.000000, 1.000000,2.000000,1.000000,6.000000,0.500000,1.000000
11, test, 8, probe, 21, 4, 1, 1, 4, 0.7, 0.3, right, 2, 0.3, 0.4, 0.6, 0.7, 1.2386337998323143, 0, 67.67984008789062, 1.3499846002086997, 11.000000, 99.000000, 2.000000,2.000000,1.000000,6.000000,0.500000,1.000000
11, test, 8, no_probe, 22, 4, 3, 3, 4, 0.7, 0.6, right, 2, 0.3, 0.4, 0.6, 0.7, 0.9268696000799537, 1, , , 12.000000, 100.000000, 1.000000,2.000000,1.000000,6.000000,0.500000,1.000000
11, test, 8, probe, 23, 2, 4, 2, 4, 0.4, 0.7, left, 1, 0.3, 0.4, 0.6, 0.7, 2.025002599693835, 0, 56.113983154296875, 1.6500115003436804, 12.000000, 100.000000, 2.000000,2.000000,1.000000,6.000000,0.500000,1.000000
11, test, 8, no_probe, 24, 4, 3, 4, 3, 0.7, 0.6, left, 1, 0.3, 0.4, 0.6, 0.7, 1.1462273001670837, 0, , , 12.000000, 100.000000, 1.000000,2.000000,1.000000,6.000000,0.500000,1.000000
11, test, 8, probe, 25, 2, 4, 2, 4, 0.4, 0.7, left, 1, 0.3, 0.4, 0.6, 0.7, 1.4610419999808073, 1, 65.48291015625, 2.883313199970871, 13.000000, 101.000000, 2.000000,2.000000,1.000000,6.000000,0.500000,1.000000
