subject, block_type, block, thought probe, trial, chosen, unchosen, offer_left_image, offer_right_image, exp_value_chosen, exp_value_unchosen, choice_location, choice_key, exp_value1, exp_value2, exp_value3, exp_value4, RT, reward, vas, RT_vas, coins_per_block, coins_per_task, count_to_prob, ntrial_to_prob, ITI_duration,RT_deadline,choice_feedback_duration,outcome_duration
27, test, 1, no_probe, 1, 4, 1, 4, 1, 0.7, 0.3, left, 1, 0.3, 0.4, 0.6, 0.7, 2.0693089000415057, 1, , , 1.000000, 1.000000, 1.000000,2.000000,1.000000,6.000000,0.500000,1.000000
27, test, 1, probe, 2, 1, 2, 1, 2, 0.3, 0.4, left, 1, 0.3, 0.4, 0.6, 0.7, 1.077119900030084, 1, 99.9969482421875, 5.883276700042188, 2.000000, 2.000000, 2.000000,2.000000,1.000000,6.000000,0.500000,1.000000
27, test, 1, no_probe, 3, 4, 2, 4, 2, 0.7, 0.4, left, 1, 0.3, 0.4, 0.6, 0.7, 1.4345083000371233, 1, , , 3.000000, 3.000000, 1.000000,2.000000,1.000000,6.000000,0.500000,1.000000
27, test, 1, probe, 4, 3, 2, 2, 3, 0.6, 0.4, right, 2, 0.3, 0.4, 0.6, 0.7, 1.2787265001097694, 0, 99.99847412109375, 3.766357499989681, 3.000000, 3.000000, 2.000000,2.000000,1.000000,6.000000,0.500000,1.000000
27, test, 1, no_probe, 5, 2, 3, 3, 2, 0.4, 0.6, right, 2, 0.3, 0.4, 0.6, 0.7, 3.0531647000461817, 0, , , 3.000000, 3.000000, 1.000000,2.000000,1.000000,6.000000,0.500000,1.000000
27, test, 1, probe, 6, 4, 1, 4, 1, 0.7, 0.3, left, 1, 0.3, 0.4, 0.6, 0.7, 1.3476655000122264, 1, 99.99813842773438, 3.733298899955116, 4.000000, 4.000000, 2.000000,2.000000,1.000000,6.000000,0.500000,1.000000
27, test, 1, no_probe, 1, 2, 4, 4, 2, 0.4, 0.7, right, 2, 0.3, 0.4, 0.6, 0.7, 0.7041834000265226, 0, , , 0.000000, 4.000000, 1.000000,2.000000,1.000000,6.000000,0.500000,1.000000
27, test, 1, probe, 2, 3, 2, 2, 3, 0.6, 0.4, right, 2, 0.3, 0.4, 0.6, 0.7, 1.5091513999504969, 1, 99.99923706054688, 2.333280999911949, 1.000000, 5.000000, 2.000000,2.000000,1.000000,6.000000,0.500000,1.000000
27, test, 1, no_probe, 3, 4, 3, 4, 3, 0.7, 0.6, left, 1, 0.3, 0.4, 0.6, 0.7, 1.9692225999897346, 1, , , 2.000000, 6.000000, 1.000000,3.000000,1.000000,6.000000,0.500000,1.000000
27, test, 1, no_probe, 4, 3, 1, 1, 3, 0.6, 0.3, right, 2, 0.3, 0.4, 0.6, 0.7, 1.9599651000462472, 1, , , 3.000000, 7.000000, 2.000000,3.000000,1.000000,6.000000,0.500000,1.000000
27, test, 1, probe, 5, 4, 2, 2, 4, 0.7, 0.4, right, 2, 0.3, 0.4, 0.6, 0.7, 3.3018235999625176, 1, 99.99822998046875, 2.8500300000887364, 4.000000, 8.000000, 3.000000,3.000000,1.000000,6.000000,0.500000,1.000000
27, test, 1, no_probe, 6, 4, 1, 4, 1, 0.7, 0.3, left, 1, 0.3, 0.4, 0.6, 0.7, 2.3564301999285817, 1, , , 5.000000, 9.000000, 1.000000,2.000000,1.000000,6.000000,0.500000,1.000000
27, test, 1, probe, 7, 4, 1, 4, 1, 0.7, 0.3, left, 1, 0.3, 0.4, 0.6, 0.7, 0.46314419992268085, 1, 99.9984130859375, 2.66660839994438, 6.000000, 10.000000, 2.000000,2.000000,1.000000,6.000000,0.500000,1.000000
27, test, 1, no_probe, 8, 4, 2, 4, 2, 0.7, 0.4, left, 1, 0.3, 0.4, 0.6, 0.7, 1.938495000009425, 1, , , 7.000000, 11.000000, 1.000000,2.000000,1.000000,6.000000,0.500000,1.000000
27, test, 1, probe, 9, 2, 1, 2, 1, 0.4, 0.3, left, 1, 0.3, 0.4, 0.6, 0.7, 1.4422904000384733, 0, 99.99960327148438, 3.166588500025682, 7.000000, 11.000000, 2.000000,2.000000,1.000000,6.000000,0.500000,1.000000
27, test, 1, no_probe, 10, 3, 1, 1, 3, 0.6, 0.3, right, 2, 0.3, 0.4, 0.6, 0.7, 1.0228041000664234, 1, , , 8.000000, 12.000000, 1.000000,2.000000,1.000000,6.000000,0.500000,1.000000
27, test, 1, probe, 11, 4, 3, 3, 4, 0.7, 0.6, right, 2, 0.3, 0.4, 0.6, 0.7, 1.2672577999765053, 1, 99.99957275390625, 1.6999685999471694, 9.000000, 13.000000, 2.000000,2.000000,1.000000,6.000000,0.500000,1.000000
27, test, 1, no_probe, 12, 4, 1, 1, 4, 0.7, 0.3, right, 2, 0.3, 0.4, 0.6, 0.7, 0.8417223000433296, 1, , , 10.000000, 14.000000, 1.000000,3.000000,1.000000,6.000000,0.500000,1.000000
27, test, 1, no_probe, 13, 3, 2, 3, 2, 0.6, 0.4, left, 1, 0.3, 0.4, 0.6, 0.7, 2.0817250999389216, 1, , , 11.000000, 15.000000, 2.000000,3.000000,1.000000,6.000000,0.500000,1.000000
27, test, 1, probe, 14, 3, 2, 2, 3, 0.6, 0.4, right, 2, 0.3, 0.4, 0.6, 0.7, 1.3310462000081316, 0, 99.99954223632812, 1.5666917000198737, 11.000000, 15.000000, 3.000000,3.000000,1.000000,6.000000,0.500000,1.000000
27, test, 1, no_probe, 15, 2, 1, 1, 2, 0.4, 0.3, right, 2, 0.3, 0.4, 0.6, 0.7, 0.8999472999712452, 1, , , 12.000000, 16.000000, 1.000000,3.000000,1.000000,6.000000,0.500000,1.000000
27, test, 1, no_probe, 16, 2, 1, 1, 2, 0.4, 0.3, right, 2, 0.3, 0.4, 0.6, 0.7, 1.3648206999059767, 1, , , 13.000000, 17.000000, 2.000000,3.000000,1.000000,6.000000,0.500000,1.000000
27, test, 1, probe, 17, 2, 3, 3, 2, 0.4, 0.6, right, 2, 0.3, 0.4, 0.6, 0.7, 0.6106561999768019, 0, 99.99945068359375, 2.0166194000048563, 13.000000, 17.000000, 3.000000,3.000000,1.000000,6.000000,0.500000,1.000000
27, test, 1, no_probe, 18, 4, 1, 1, 4, 0.7, 0.3, right, 2, 0.3, 0.4, 0.6, 0.7, 1.0427019000053406, 0, , , 13.000000, 17.000000, 1.000000,3.000000,1.000000,6.000000,0.500000,1.000000
27, test, 1, no_probe, 19, 4, 3, 4, 3, 0.7, 0.6, left, 1, 0.3, 0.4, 0.6, 0.7, 2.4430276999482885, 1, , , 14.000000, 18.000000, 2.000000,3.000000,1.000000,6.000000,0.500000,1.000000
27, test, 1, probe, 20, 4, 2, 4, 2, 0.7, 0.4, left, 1, 0.3, 0.4, 0.6, 0.7, 1.2468479999806732, 0, 99.99923706054688, 2.2166746000293642, 14.000000, 18.000000, 3.000000,3.000000,1.000000,6.000000,0.500000,1.000000
27, test, 1, no_probe, 21, 4, 3, 4, 3, 0.7, 0.6, left, 1, 0.3, 0.4, 0.6, 0.7, 1.2159397000214085, 0, , , 14.000000, 18.000000, 1.000000,2.000000,1.000000,6.000000,0.500000,1.000000
27, test, 1, probe, 22, 2, 3, 3, 2, 0.4, 0.6, right, 2, 0.3, 0.4, 0.6, 0.7, 1.219929900020361, 0, 99.9996337890625, 1.8333230999996886, 14.000000, 18.000000, 2.000000,2.000000,1.000000,6.000000,0.500000,1.000000
27, test, 1, no_probe, 23, 3, 1, 3, 1, 0.6, 0.3, left, 1, 0.3, 0.4, 0.6, 0.7, 1.3148403000086546, 1, , , 15.000000, 19.000000, 1.000000,3.000000,1.000000,6.000000,0.500000,1.000000
27, test, 1, no_probe, 24, 4, 1, 4, 1, 0.7, 0.3, left, 1, 0.3, 0.4, 0.6, 0.7, 0.7523366999812424, 1, , , 16.000000, 20.000000, 2.000000,3.000000,1.000000,6.000000,0.500000,1.000000
27, test, 1, probe, 25, 2, 1, 1, 2, 0.4, 0.3, right, 2, 0.3, 0.4, 0.6, 0.7, 1.0349252000451088, 0, 99.04876708984375, 1.4666373000945896, 16.000000, 20.000000, 3.000000,3.000000,1.000000,6.000000,0.500000,1.000000
27, test, 2, no_probe, 1, 4, 3, 4, 3, 0.7, 0.6, left, 1, 0.3, 0.4, 0.6, 0.7, 0.6176422999706119, 1, , , 1.000000, 21.000000, 1.000000,3.000000,1.000000,6.000000,0.500000,1.000000
27, test, 2, no_probe, 2, 1, 3, 1, 3, 0.3, 0.6, left, 1, 0.3, 0.4, 0.6, 0.7, 1.1465101999929175, 1, , , 2.000000, 22.000000, 2.000000,3.000000,1.000000,6.000000,0.500000,1.000000
27, test, 2, probe, 3, 4, 3, 4, 3, 0.7, 0.6, left, 1, 0.3, 0.4, 0.6, 0.7, 0.763422799995169, 1, 99.99935913085938, 2.61630479991436, 3.000000, 23.000000, 3.000000,3.000000,1.000000,6.000000,0.500000,1.000000
27, test, 2, no_probe, 4, 1, 2, 2, 1, 0.3, 0.4, right, 2, 0.3, 0.4, 0.6, 0.7, 1.122770700021647, 0, , , 3.000000, 23.000000, 1.000000,3.000000,1.000000,6.000000,0.500000,1.000000
27, test, 2, no_probe, 5, 2, 4, 2, 4, 0.4, 0.7, left, 1, 0.3, 0.4, 0.6, 0.7, 0.6636781000997871, 1, , , 4.000000, 24.000000, 2.000000,3.000000,1.000000,6.000000,0.500000,1.000000
27, test, 2, probe, 6, 1, 3, 3, 1, 0.3, 0.6, right, 2, 0.3, 0.4, 0.6, 0.7, 2.579351900028996, 0, 99.99948120117188, 1.733302399981767, 4.000000, 24.000000, 3.000000,3.000000,1.000000,6.000000,0.500000,1.000000
27, test, 2, no_probe, 7, 2, 4, 4, 2, 0.4, 0.7, right, 2, 0.3, 0.4, 0.6, 0.7, 0.9389648999786004, 1, , , 5.000000, 25.000000, 1.000000,2.000000,1.000000,6.000000,0.500000,1.000000
27, test, 2, abort_prob, 8, 3, 4, 4, 3, 0.6, 0.7, right, 2, 0.3, 0.4, 0.6, 0.7, 0.906818899908103, 0, , , 5.000000, 25.000000, 2.000000,2.000000,1.000000,6.000000,0.500000,1.000000
27, test, 2, no_probe, 9, 4, 1, 1, 4, 0.7, 0.3, right, 2, 0.3, 0.4, 0.6, 0.7, 1.4143609999446198, 1, , , 6.000000, 26.000000, 1.000000,2.000000,1.000000,6.000000,0.500000,1.000000
27, test, 2, probe, 10, 4, 2, 2, 4, 0.7, 0.4, right, 2, 0.3, 0.4, 0.6, 0.7, 0.5478070999961346, 1, 87.75137329101562, 2.466656900011003, 7.000000, 27.000000, 2.000000,2.000000,1.000000,6.000000,0.500000,1.000000
27, test, 2, no_probe, 11, 4, 3, 3, 4, 0.7, 0.6, right, 2, 0.3, 0.4, 0.6, 0.7, 0.5908924000104889, 0, , , 7.000000, 27.000000, 1.000000,2.000000,1.000000,6.000000,0.500000,1.000000
27, test, 2, probe, 12, 1, 2, 1, 2, 0.3, 0.4, left, 1, 0.3, 0.4, 0.6, 0.7, 1.7124585999408737, 1, 79.98544311523438, 2.1499916999600828, 8.000000, 28.000000, 2.000000,2.000000,1.000000,6.000000,0.500000,1.000000
27, test, 2, no_probe, 13, 3, 2, 2, 3, 0.6, 0.4, right, 2, 0.3, 0.4, 0.6, 0.7, 0.9652886999538168, 0, , , 8.000000, 28.000000, 1.000000,2.000000,1.000000,6.000000,0.500000,1.000000
27, test, 2, probe, 14, 2, 1, 2, 1, 0.4, 0.3, left, 1, 0.3, 0.4, 0.6, 0.7, 1.16478560003452, 1, 91.73452758789062, 2.6832828000187874, 9.000000, 29.000000, 2.000000,2.000000,1.000000,6.000000,0.500000,1.000000
27, test, 2, no_probe, 15, 1, 3, 1, 3, 0.3, 0.6, left, 1, 0.3, 0.4, 0.6, 0.7, 1.0631995999719948, 0, , , 9.000000, 29.000000, 1.000000,2.000000,1.000000,6.000000,0.500000,1.000000
27, test, 2, probe, 16, 3, 1, 1, 3, 0.6, 0.3, right, 2, 0.3, 0.4, 0.6, 0.7, 1.4251360000343993, 1, 99.99951171875, 1.966621500090696, 10.000000, 30.000000, 2.000000,2.000000,1.000000,6.000000,0.500000,1.000000
27, test, 2, no_probe, 17, 2, 1, 1, 2, 0.4, 0.3, right, 2, 0.3, 0.4, 0.6, 0.7, 1.1628422000212595, 0, , , 10.000000, 30.000000, 1.000000,2.000000,1.000000,6.000000,0.500000,1.000000
27, test, 2, probe, 18, 1, 4, 1, 4, 0.3, 0.7, left, 1, 0.3, 0.4, 0.6, 0.7, 0.7610119000310078, 1, 98.95156860351562, 1.916680600028485, 11.000000, 31.000000, 2.000000,2.000000,1.000000,6.000000,0.500000,1.000000
27, test, 2, no_probe, 19, 3, 4, 3, 4, 0.6, 0.7, left, 1, 0.3, 0.4, 0.6, 0.7, 2.3225554999662563, 1, , , 12.000000, 32.000000, 1.000000,2.000000,1.000000,6.000000,0.500000,1.000000
27, test, 2, probe, 20, 3, 2, 3, 2, 0.6, 0.4, left, 1, 0.3, 0.4, 0.6, 0.7, 0.5837497999891639, 1, 98.37451171875, 1.5332966999849305, 13.000000, 33.000000, 2.000000,2.000000,1.000000,6.000000,0.500000,1.000000
27, test, 2, no_probe, 21, 2, 4, 4, 2, 0.4, 0.7, right, 2, 0.3, 0.4, 0.6, 0.7, 2.3827431000536308, 0, , , 13.000000, 33.000000, 1.000000,2.000000,1.000000,6.000000,0.500000,1.000000
27, test, 2, probe, 22, 2, 4, 2, 4, 0.4, 0.7, left, 1, 0.3, 0.4, 0.6, 0.7, 0.6772659999551252, 0, 99.9996337890625, 2.099949400057085, 13.000000, 33.000000, 2.000000,2.000000,1.000000,6.000000,0.500000,1.000000
27, test, 2, no_probe, 23, 2, 1, 2, 1, 0.4, 0.3, left, 1, 0.3, 0.4, 0.6, 0.7, 0.9210710999323055, 0, , , 13.000000, 33.000000, 1.000000,2.000000,1.000000,6.000000,0.500000,1.000000
27, test, 2, probe, 24, 4, 2, 4, 2, 0.7, 0.4, left, 1, 0.3, 0.4, 0.6, 0.7, 1.3985338000347838, 1, 97.044921875, 2.349940000101924, 14.000000, 34.000000, 2.000000,2.000000,1.000000,6.000000,0.500000,1.000000
27, test, 2, no_probe, 25, 3, 2, 2, 3, 0.6, 0.4, right, 2, 0.3, 0.4, 0.6, 0.7, 1.1925117999780923, 1, , , 15.000000, 35.000000, 1.000000,3.000000,1.000000,6.000000,0.500000,1.000000
27, test, 3, no_probe, 1, 3, 4, 4, 3, 0.6, 0.7, right, 2, 0.3, 0.4, 0.6, 0.7, 0.5436423999490216, 1, , , 1.000000, 36.000000, 1.000000,2.000000,1.000000,6.000000,0.500000,1.000000
27, test, 3, probe, 2, 4, 1, 1, 4, 0.7, 0.3, right, 2, 0.3, 0.4, 0.6, 0.7, 1.6268500000005588, 1, 99.70547485351562, 1.6999648000346497, 2.000000, 37.000000, 2.000000,2.000000,1.000000,6.000000,0.500000,1.000000
27, test, 3, no_probe, 3, 3, 4, 3, 4, 0.6, 0.7, left, 1, 0.3, 0.4, 0.6, 0.7, 1.0309785000281408, 0, , , 2.000000, 37.000000, 1.000000,2.000000,1.000000,6.000000,0.500000,1.000000
27, test, 3, probe, 4, 2, 1, 1, 2, 0.4, 0.3, right, 2, 0.3, 0.4, 0.6, 0.7, 1.9226366999791935, 1, 99.99969482421875, 1.6499818000011146, 3.000000, 38.000000, 2.000000,2.000000,1.000000,6.000000,0.500000,1.000000
27, test, 3, no_probe, 5, 4, 1, 1, 4, 0.7, 0.3, right, 2, 0.3, 0.4, 0.6, 0.7, 1.3952865999890491, 0, , , 3.000000, 38.000000, 1.000000,2.000000,1.000000,6.000000,0.500000,1.000000
27, test, 3, probe, 6, 2, 1, 1, 2, 0.4, 0.3, right, 2, 0.3, 0.4, 0.6, 0.7, 1.381532600033097, 0, 99.99972534179688, 2.016592500032857, 3.000000, 38.000000, 2.000000,2.000000,1.000000,6.000000,0.500000,1.000000
27, test, 3, no_probe, 7, 4, 3, 4, 3, 0.7, 0.6, left, 1, 0.3, 0.4, 0.6, 0.7, 2.6004940000129864, 1, , , 4.000000, 39.000000, 1.000000,3.000000,1.000000,6.000000,0.500000,1.000000
27, test, 3, no_probe, 8, 4, 1, 1, 4, 0.7, 0.3, right, 2, 0.3, 0.4, 0.6, 0.7, 0.6031439999351278, 1, , , 5.000000, 40.000000, 2.000000,3.000000,1.000000,6.000000,0.500000,1.000000
27, test, 3, probe, 9, 3, 4, 3, 4, 0.6, 0.7, left, 1, 0.3, 0.4, 0.6, 0.7, 1.1159833999117836, 0, 99.99978637695312, 1.499924400006421, 5.000000, 40.000000, 3.000000,3.000000,1.000000,6.000000,0.500000,1.000000
27, test, 3, no_probe, 10, 2, 1, 1, 2, 0.4, 0.3, right, 2, 0.3, 0.4, 0.6, 0.7, 1.0596060999669135, 0, , , 5.000000, 40.000000, 1.000000,2.000000,1.000000,6.000000,0.500000,1.000000
27, test, 3, probe, 11, 1, 2, 2, 1, 0.3, 0.4, right, 2, 0.3, 0.4, 0.6, 0.7, 1.9259979999624193, 0, 99.09518432617188, 2.483350499998778, 5.000000, 40.000000, 2.000000,2.000000,1.000000,6.000000,0.500000,1.000000
27, test, 3, no_probe, 12, 2, 3, 2, 3, 0.4, 0.6, left, 1, 0.3, 0.4, 0.6, 0.7, 0.7943080000113696, 0, , , 5.000000, 40.000000, 1.000000,2.000000,1.000000,6.000000,0.500000,1.000000
27, test, 3, probe, 13, 4, 1, 1, 4, 0.7, 0.3, right, 2, 0.3, 0.4, 0.6, 0.7, 1.023347400012426, 1, 99.99960327148438, 1.7499250000109896, 6.000000, 41.000000, 2.000000,2.000000,1.000000,6.000000,0.500000,1.000000
27, test, 3, no_probe, 14, 3, 1, 1, 3, 0.6, 0.3, right, 2, 0.3, 0.4, 0.6, 0.7, 1.3973032000940293, 1, , , 7.000000, 42.000000, 1.000000,2.000000,1.000000,6.000000,0.500000,1.000000
27, test, 3, probe, 15, 1, 2, 1, 2, 0.3, 0.4, left, 1, 0.3, 0.4, 0.6, 0.7, 1.311847500037402, 0, 99.9996337890625, 1.8166822999482974, 7.000000, 42.000000, 2.000000,2.000000,1.000000,6.000000,0.500000,1.000000
27, test, 3, no_probe, 16, 4, 2, 2, 4, 0.7, 0.4, right, 2, 0.3, 0.4, 0.6, 0.7, 1.5572154000401497, 1, , , 8.000000, 43.000000, 1.000000,2.000000,1.000000,6.000000,0.500000,1.000000
27, test, 3, probe, 17, 1, 4, 1, 4, 0.3, 0.7, left, 1, 0.3, 0.4, 0.6, 0.7, 1.7808292999397963, 1, 99.99978637695312, 1.4833035999909043, 9.000000, 44.000000, 2.000000,2.000000,1.000000,6.000000,0.500000,1.000000
27, test, 3, no_probe, 18, 3, 1, 1, 3, 0.6, 0.3, right, 2, 0.3, 0.4, 0.6, 0.7, 0.6863528999965638, 1, , , 10.000000, 45.000000, 1.000000,2.000000,1.000000,6.000000,0.500000,1.000000
27, test, 3, probe, 19, 1, 4, 1, 4, 0.3, 0.7, left, 1, 0.3, 0.4, 0.6, 0.7, 0.8332553999498487, 1, 99.99966430664062, 2.049990399973467, 11.000000, 46.000000, 2.000000,2.000000,1.000000,6.000000,0.500000,1.000000
27, test, 3, no_probe, 20, 2, 4, 4, 2, 0.4, 0.7, right, 2, 0.3, 0.4, 0.6, 0.7, 1.6049610000336543, 0, , , 11.000000, 46.000000, 1.000000,3.000000,1.000000,6.000000,0.500000,1.000000
27, test, 3, no_probe, 21, 1, 3, 3, 1, 0.3, 0.6, right, 2, 0.3, 0.4, 0.6, 0.7, 2.306120799970813, 0, , , 11.000000, 46.000000, 2.000000,3.000000,1.000000,6.000000,0.500000,1.000000
27, test, 3, probe, 22, 2, 1, 2, 1, 0.4, 0.3, left, 1, 0.3, 0.4, 0.6, 0.7, 1.7604168000398204, 0, 99.99972534179688, 1.6332979999715462, 11.000000, 46.000000, 3.000000,3.000000,1.000000,6.000000,0.500000,1.000000
27, test, 3, no_probe, 23, 1, 4, 4, 1, 0.3, 0.7, right, 2, 0.3, 0.4, 0.6, 0.7, 0.6532598999328911, 1, , , 12.000000, 47.000000, 1.000000,3.000000,1.000000,6.000000,0.500000,1.000000
27, test, 3, no_probe, 24, 1, 3, 3, 1, 0.3, 0.6, right, 2, 0.3, 0.4, 0.6, 0.7, 1.9561295000603423, 0, , , 12.000000, 47.000000, 2.000000,3.000000,1.000000,6.000000,0.500000,1.000000
27, test, 3, probe, 25, 3, 2, 3, 2, 0.6, 0.4, left, 1, 0.3, 0.4, 0.6, 0.7, 0.5238351000007242, 0, 99.99981689453125, 1.5999757000245154, 12.000000, 47.000000, 3.000000,3.000000,1.000000,6.000000,0.500000,1.000000
27, test, 4, no_probe, 1, 1, 3, 1, 3, 0.3, 0.6, left, 1, 0.3, 0.4, 0.6, 0.7, 0.660336000029929, 0, , , 0.000000, 47.000000, 1.000000,2.000000,1.000000,6.000000,0.500000,1.000000
27, test, 4, probe, 2, 4, 1, 1, 4, 0.7, 0.3, right, 2, 0.3, 0.4, 0.6, 0.7, 0.6405316999880597, 0, 99.9996337890625, 2.4333329999353737, 0.000000, 47.000000, 2.000000,2.000000,1.000000,6.000000,0.500000,1.000000
27, test, 4, no_probe, 3, 3, 4, 4, 3, 0.6, 0.7, right, 2, 0.3, 0.4, 0.6, 0.7, 0.8132683999137953, 1, , , 1.000000, 48.000000, 1.000000,3.000000,1.000000,6.000000,0.500000,1.000000
27, test, 4, no_probe, 4, 4, 2, 2, 4, 0.7, 0.4, right, 2, 0.3, 0.4, 0.6, 0.7, 0.45878019998781383, 0, , , 1.000000, 48.000000, 2.000000,3.000000,1.000000,6.000000,0.500000,1.000000
27, test, 4, probe, 5, 2, 1, 1, 2, 0.4, 0.3, right, 2, 0.3, 0.4, 0.6, 0.7, 1.210420100018382, 1, 99.99966430664062, 1.833286799956113, 2.000000, 49.000000, 3.000000,3.000000,1.000000,6.000000,0.500000,1.000000
27, test, 4, no_probe, 6, 2, 1, 1, 2, 0.4, 0.3, right, 2, 0.3, 0.4, 0.6, 0.7, 0.8474180999910459, 0, , , 2.000000, 49.000000, 1.000000,3.000000,1.000000,6.000000,0.500000,1.000000
27, test, 4, no_probe, 7, 1, 4, 1, 4, 0.3, 0.7, left, 1, 0.3, 0.4, 0.6, 0.7, 2.3956117999041453, 0, , , 2.000000, 49.000000, 2.000000,3.000000,1.000000,6.000000,0.500000,1.000000
27, test, 4, probe, 8, 2, 1, 2, 1, 0.4, 0.3, left, 1, 0.3, 0.4, 0.6, 0.7, 1.2010190000291914, 0, 94.80264282226562, 3.3832389999879524, 2.000000, 49.000000, 3.000000,3.000000,1.000000,6.000000,0.500000,1.000000
27, test, 4, no_probe, 9, 3, 1, 1, 3, 0.6, 0.3, right, 2, 0.3, 0.4, 0.6, 0.7, 1.7134815000463277, 0, , , 2.000000, 49.000000, 1.000000,2.000000,1.000000,6.000000,0.500000,1.000000
27, test, 4, probe, 10, 4, 2, 2, 4, 0.7, 0.4, right, 2, 0.3, 0.4, 0.6, 0.7, 3.5588816999224946, 1, 99.99954223632812, 1.9666405000025406, 3.000000, 50.000000, 2.000000,2.000000,1.000000,6.000000,0.500000,1.000000
27, test, 4, no_probe, 11, 4, 2, 2, 4, 0.7, 0.4, right, 2, 0.3, 0.4, 0.6, 0.7, 0.6062234999844804, 1, , , 4.000000, 51.000000, 1.000000,3.000000,1.000000,6.000000,0.500000,1.000000
27, test, 4, no_probe, 12, 3, 1, 3, 1, 0.6, 0.3, left, 1, 0.3, 0.4, 0.6, 0.7, 1.220359200029634, 0, , , 4.000000, 51.000000, 2.000000,3.000000,1.000000,6.000000,0.500000,1.000000
27, test, 4, probe, 13, 4, 2, 2, 4, 0.7, 0.4, right, 2, 0.3, 0.4, 0.6, 0.7, 0.8119122000643983, 1, 99.999755859375, 1.6833432000130415, 5.000000, 52.000000, 3.000000,3.000000,1.000000,6.000000,0.500000,1.000000
27, test, 4, no_probe, 14, 4, 3, 3, 4, 0.7, 0.6, right, 2, 0.3, 0.4, 0.6, 0.7, 2.531630099983886, 1, , , 6.000000, 53.000000, 1.000000,2.000000,1.000000,6.000000,0.500000,1.000000
27, test, 4, probe, 15, 1, 3, 3, 1, 0.3, 0.6, right, 2, 0.3, 0.4, 0.6, 0.7, 1.167463400051929, 0, 99.99972534179688, 1.6332854001084343, 6.000000, 53.000000, 2.000000,2.000000,1.000000,6.000000,0.500000,1.000000
27, test, 4, no_probe, 16, 2, 3, 3, 2, 0.4, 0.6, right, 2, 0.3, 0.4, 0.6, 0.7, 0.8923938999651, 0, , , 6.000000, 53.000000, 1.000000,3.000000,1.000000,6.000000,0.500000,1.000000
27, test, 4, no_probe, 17, 4, 1, 4, 1, 0.7, 0.3, left, 1, 0.3, 0.4, 0.6, 0.7, 0.30636669998057187, 1, , , 7.000000, 54.000000, 2.000000,3.000000,1.000000,6.000000,0.500000,1.000000
27, test, 4, probe, 18, 4, 2, 4, 2, 0.7, 0.4, left, 1, 0.3, 0.4, 0.6, 0.7, 0.547302299994044, 0, 99.30178833007812, 1.2832820999901742, 7.000000, 54.000000, 3.000000,3.000000,1.000000,6.000000,0.500000,1.000000
27, test, 4, no_probe, 19, 1, 4, 4, 1, 0.3, 0.7, right, 2, 0.3, 0.4, 0.6, 0.7, 0.2993903000606224, 0, , , 7.000000, 54.000000, 1.000000,3.000000,1.000000,6.000000,0.500000,1.000000
27, test, 4, no_probe, 20, 2, 4, 2, 4, 0.4, 0.7, left, 1, 0.3, 0.4, 0.6, 0.7, 0.4083089999621734, 0, , , 7.000000, 54.000000, 2.000000,3.000000,1.000000,6.000000,0.500000,1.000000
27, test, 4, probe, 21, 3, 2, 2, 3, 0.6, 0.4, right, 2, 0.3, 0.4, 0.6, 0.7, 0.7610859000124037, 0, 86.55364990234375, 2.0332998000085354, 7.000000, 54.000000, 3.000000,3.000000,1.000000,6.000000,0.500000,1.000000
27, test, 4, no_probe, 22, 4, 1, 4, 1, 0.7, 0.3, left, 1, 0.3, 0.4, 0.6, 0.7, 1.584625400020741, 1, , , 8.000000, 55.000000, 1.000000,3.000000,1.000000,6.000000,0.500000,1.000000
27, test, 4, no_probe, 23, 4, 2, 2, 4, 0.7, 0.4, right, 2, 0.3, 0.4, 0.6, 0.7, 1.5265489000594243, 0, , , 8.000000, 55.000000, 2.000000,3.000000,1.000000,6.000000,0.500000,1.000000
27, test, 4, probe, 24, 1, 2, 1, 2, 0.3, 0.4, left, 1, 0.3, 0.4, 0.6, 0.7, 1.4159994999645278, 1, 97.65097045898438, 1.7500160000054166, 9.000000, 56.000000, 3.000000,3.000000,1.000000,6.000000,0.500000,1.000000
27, test, 4, no_probe, 25, 4, 3, 4, 3, 0.7, 0.6, left, 1, 0.3, 0.4, 0.6, 0.7, 0.7140121000120416, 1, , , 10.000000, 57.000000, 1.000000,3.000000,1.000000,6.000000,0.500000,1.000000
27, test, 5, no_probe, 1, 2, 4, 4, 2, 0.4, 0.7, right, 2, 0.3, 0.4, 0.6, 0.7, 0.28443680005148053, 0, , , 0.000000, 57.000000, 1.000000,3.000000,1.000000,6.000000,0.500000,1.000000
27, test, 5, no_probe, 2, 2, 1, 2, 1, 0.4, 0.3, left, 1, 0.3, 0.4, 0.6, 0.7, 1.3488897000206634, 0, , , 0.000000, 57.000000, 2.000000,3.000000,1.000000,6.000000,0.500000,1.000000
27, test, 5, probe, 3, 1, 3, 3, 1, 0.3, 0.6, right, 2, 0.3, 0.4, 0.6, 0.7, 0.5044313999824226, 0, 90.01629638671875, 1.4329222000669688, 0.000000, 57.000000, 3.000000,3.000000,1.000000,6.000000,0.500000,1.000000
27, test, 5, no_probe, 4, 4, 1, 4, 1, 0.7, 0.3, left, 1, 0.3, 0.4, 0.6, 0.7, 2.5672627999447286, 1, , , 1.000000, 58.000000, 1.000000,2.000000,1.000000,6.000000,0.500000,1.000000
27, test, 5, probe, 5, 2, 1, 2, 1, 0.4, 0.3, left, 1, 0.3, 0.4, 0.6, 0.7, 0.6752703000092879, 0, 98.61526489257812, 1.7833059000549838, 1.000000, 58.000000, 2.000000,2.000000,1.000000,6.000000,0.500000,1.000000
27, test, 5, no_probe, 6, 4, 3, 4, 3, 0.7, 0.6, left, 1, 0.3, 0.4, 0.6, 0.7, 0.6683781000319868, 1, , , 2.000000, 59.000000, 1.000000,2.000000,1.000000,6.000000,0.500000,1.000000
27, test, 5, probe, 7, 4, 3, 3, 4, 0.7, 0.6, right, 2, 0.3, 0.4, 0.6, 0.7, 0.9432939999969676, 1, 99.999755859375, 1.7333046999992803, 3.000000, 60.000000, 2.000000,2.000000,1.000000,6.000000,0.500000,1.000000
27, test, 5, no_probe, 8, 4, 3, 3, 4, 0.7, 0.6, right, 2, 0.3, 0.4, 0.6, 0.7, 1.1919883999507874, 0, , , 3.000000, 60.000000, 1.000000,3.000000,1.000000,6.000000,0.500000,1.000000
27, test, 5, no_probe, 9, 4, 2, 2, 4, 0.7, 0.4, right, 2, 0.3, 0.4, 0.6, 0.7, 1.0662172000156716, 0, , , 3.000000, 60.000000, 2.000000,3.000000,1.000000,6.000000,0.500000,1.000000
27, test, 5, probe, 10, 4, 1, 4, 1, 0.7, 0.3, left, 1, 0.3, 0.4, 0.6, 0.7, 1.3452837000368163, 1, 99.99948120117188, 2.016643499955535, 4.000000, 61.000000, 3.000000,3.000000,1.000000,6.000000,0.500000,1.000000
27, test, 5, no_probe, 11, 3, 2, 3, 2, 0.6, 0.4, left, 1, 0.3, 0.4, 0.6, 0.7, 2.1909554000012577, 1, , , 5.000000, 62.000000, 1.000000,3.000000,1.000000,6.000000,0.500000,1.000000
27, test, 5, no_probe, 12, 1, 2, 2, 1, 0.3, 0.4, right, 2, 0.3, 0.4, 0.6, 0.7, 1.2333097000373527, 0, , , 5.000000, 62.000000, 2.000000,3.000000,1.000000,6.000000,0.500000,1.000000
27, test, 5, probe, 13, 3, 4, 4, 3, 0.6, 0.7, right, 2, 0.3, 0.4, 0.6, 0.7, 0.973577499971725, 1, 99.99966430664062, 1.7333387000253424, 6.000000, 63.000000, 3.000000,3.000000,1.000000,6.000000,0.500000,1.000000
27, test, 5, no_probe, 14, 2, 3, 2, 3, 0.4, 0.6, left, 1, 0.3, 0.4, 0.6, 0.7, 0.664013999979943, 1, , , 7.000000, 64.000000, 1.000000,2.000000,1.000000,6.000000,0.500000,1.000000
27, test, 5, probe, 15, 2, 3, 2, 3, 0.4, 0.6, left, 1, 0.3, 0.4, 0.6, 0.7, 1.231584700057283, 0, 99.9996337890625, 1.733273799996823, 7.000000, 64.000000, 2.000000,2.000000,1.000000,6.000000,0.500000,1.000000
27, test, 5, no_probe, 16, 1, 3, 3, 1, 0.3, 0.6, right, 2, 0.3, 0.4, 0.6, 0.7, 2.509009800036438, 0, , , 7.000000, 64.000000, 1.000000,3.000000,1.000000,6.000000,0.500000,1.000000
27, test, 5, no_probe, 17, 3, 2, 3, 2, 0.6, 0.4, left, 1, 0.3, 0.4, 0.6, 0.7, 0.5507928000297397, 1, , , 8.000000, 65.000000, 2.000000,3.000000,1.000000,6.000000,0.500000,1.000000
27, test, 5, probe, 18, 1, 2, 1, 2, 0.3, 0.4, left, 1, 0.3, 0.4, 0.6, 0.7, 0.9345936999889091, 0, 99.9996337890625, 1.8333176000742242, 8.000000, 65.000000, 3.000000,3.000000,1.000000,6.000000,0.500000,1.000000
27, test, 5, no_probe, 19, 4, 1, 4, 1, 0.7, 0.3, left, 1, 0.3, 0.4, 0.6, 0.7, 1.8232473999960348, 1, , , 9.000000, 66.000000, 1.000000,3.000000,1.000000,6.000000,0.500000,1.000000
27, test, 5, no_probe, 20, 2, 4, 4, 2, 0.4, 0.7, right, 2, 0.3, 0.4, 0.6, 0.7, 1.2198577000526711, 0, , , 9.000000, 66.000000, 2.000000,3.000000,1.000000,6.000000,0.500000,1.000000
27, test, 5, probe, 21, 3, 1, 3, 1, 0.6, 0.3, left, 1, 0.3, 0.4, 0.6, 0.7, 2.2735002998961136, 0, 99.99969482421875, 1.5666712000966072, 9.000000, 66.000000, 3.000000,3.000000,1.000000,6.000000,0.500000,1.000000
27, test, 5, no_probe, 22, 2, 3, 3, 2, 0.4, 0.6, right, 2, 0.3, 0.4, 0.6, 0.7, 0.9266003000084311, 0, , , 9.000000, 66.000000, 1.000000,3.000000,1.000000,6.000000,0.500000,1.000000
27, test, 5, no_probe, 23, 4, 1, 4, 1, 0.7, 0.3, left, 1, 0.3, 0.4, 0.6, 0.7, 0.5561801000731066, 1, , , 10.000000, 67.000000, 2.000000,3.000000,1.000000,6.000000,0.500000,1.000000
27, test, 5, probe, 24, 2, 1, 2, 1, 0.4, 0.3, left, 1, 0.3, 0.4, 0.6, 0.7, 1.0283131999894977, 1, 99.99954223632812, 2.1166067000012845, 11.000000, 68.000000, 3.000000,3.000000,1.000000,6.000000,0.500000,1.000000
27, test, 5, no_probe, 25, 3, 4, 3, 4, 0.6, 0.7, left, 1, 0.3, 0.4, 0.6, 0.7, 0.5699484000215307, 1, , , 12.000000, 69.000000, 1.000000,3.000000,1.000000,6.000000,0.500000,1.000000
27, test, 6, no_probe, 1, 1, 4, 4, 1, 0.3, 0.7, right, 2, 0.3, 0.4, 0.6, 0.7, 0.18365449993871152, 0, , , 0.000000, 69.000000, 1.000000,3.000000,1.000000,6.000000,0.500000,1.000000
27, test, 6, no_probe, 2, 3, 2, 3, 2, 0.6, 0.4, left, 1, 0.3, 0.4, 0.6, 0.7, 0.5100854000775144, 0, , , 0.000000, 69.000000, 2.000000,3.000000,1.000000,6.000000,0.500000,1.000000
27, test, 6, probe, 3, 4, 1, 4, 1, 0.7, 0.3, left, 1, 0.3, 0.4, 0.6, 0.7, 1.1764628000091761, 1, 99.99957275390625, 1.849622800014913, 1.000000, 70.000000, 3.000000,3.000000,1.000000,6.000000,0.500000,1.000000
27, test, 6, no_probe, 4, 3, 4, 3, 4, 0.6, 0.7, left, 1, 0.3, 0.4, 0.6, 0.7, 0.7036699999589473, 0, , , 1.000000, 70.000000, 1.000000,2.000000,1.000000,6.000000,0.500000,1.000000
27, test, 6, probe, 5, 2, 4, 2, 4, 0.4, 0.7, left, 1, 0.3, 0.4, 0.6, 0.7, 0.5971731999889016, 0, 96.65325927734375, 2.68327570008114, 1.000000, 70.000000, 2.000000,2.000000,1.000000,6.000000,0.500000,1.000000
27, test, 6, no_probe, 6, 4, 2, 4, 2, 0.7, 0.4, left, 1, 0.3, 0.4, 0.6, 0.7, 0.8092407999793068, 0, , , 1.000000, 70.000000, 1.000000,2.000000,1.000000,6.000000,0.500000,1.000000
27, test, 6, probe, 7, 2, 4, 4, 2, 0.4, 0.7, right, 2, 0.3, 0.4, 0.6, 0.7, 0.6337263999739662, 1, 99.999755859375, 1.6833740998990834, 2.000000, 71.000000, 2.000000,2.000000,1.000000,6.000000,0.500000,1.000000
27, test, 6, no_probe, 8, 3, 1, 3, 1, 0.6, 0.3, left, 1, 0.3, 0.4, 0.6, 0.7, 1.505308200023137, 1, , , 3.000000, 72.000000, 1.000000,2.000000,1.000000,6.000000,0.500000,1.000000
27, test, 6, probe, 9, 2, 4, 2, 4, 0.4, 0.7, left, 1, 0.3, 0.4, 0.6, 0.7, 0.5385276000015438, 0, 98.39132690429688, 1.9499685000628233, 3.000000, 72.000000, 2.000000,2.000000,1.000000,6.000000,0.500000,1.000000
27, test, 6, no_probe, 10, 4, 2, 2, 4, 0.7, 0.4, right, 2, 0.3, 0.4, 0.6, 0.7, 1.0648291000397876, 0, , , 3.000000, 72.000000, 1.000000,3.000000,1.000000,6.000000,0.500000,1.000000
27, test, 6, no_probe, 11, 3, 2, 3, 2, 0.6, 0.4, left, 1, 0.3, 0.4, 0.6, 0.7, 0.41898820002097636, 1, , , 4.000000, 73.000000, 2.000000,3.000000,1.000000,6.000000,0.500000,1.000000
27, test, 6, probe, 12, 3, 1, 1, 3, 0.6, 0.3, right, 2, 0.3, 0.4, 0.6, 0.7, 0.7792526000412181, 1, 99.703369140625, 2.6166706000221893, 5.000000, 74.000000, 3.000000,3.000000,1.000000,6.000000,0.500000,1.000000
27, test, 6, no_probe, 13, 4, 1, 4, 1, 0.7, 0.3, left, 1, 0.3, 0.4, 0.6, 0.7, 0.8631754000671208, 1, , , 6.000000, 75.000000, 1.000000,2.000000,1.000000,6.000000,0.500000,1.000000
27, test, 6, probe, 14, 2, 1, 1, 2, 0.4, 0.3, right, 2, 0.3, 0.4, 0.6, 0.7, 0.5907886999193579, 0, 98.22705078125, 1.7333148999605328, 6.000000, 75.000000, 2.000000,2.000000,1.000000,6.000000,0.500000,1.000000
27, test, 6, no_probe, 15, 4, 2, 2, 4, 0.7, 0.4, right, 2, 0.3, 0.4, 0.6, 0.7, 4.01710300007835, 1, , , 7.000000, 76.000000, 1.000000,3.000000,1.000000,6.000000,0.500000,1.000000
27, test, 6, no_probe, 16, 3, 4, 4, 3, 0.6, 0.7, right, 2, 0.3, 0.4, 0.6, 0.7, 1.9539719000458717, 1, , , 8.000000, 77.000000, 2.000000,3.000000,1.000000,6.000000,0.500000,1.000000
27, test, 6, probe, 17, 3, 4, 3, 4, 0.6, 0.7, left, 1, 0.3, 0.4, 0.6, 0.7, 1.1145274000009522, 1, 99.99960327148438, 2.1165794000262395, 9.000000, 78.000000, 3.000000,3.000000,1.000000,6.000000,0.500000,1.000000
27, test, 6, no_probe, 18, 2, 4, 2, 4, 0.4, 0.7, left, 1, 0.3, 0.4, 0.6, 0.7, 0.6642609999980778, 0, , , 9.000000, 78.000000, 1.000000,3.000000,1.000000,6.000000,0.500000,1.000000
27, test, 6, no_probe, 19, 3, 1, 1, 3, 0.6, 0.3, right, 2, 0.3, 0.4, 0.6, 0.7, 1.062614900059998, 1, , , 10.000000, 79.000000, 2.000000,3.000000,1.000000,6.000000,0.500000,1.000000
27, test, 6, probe, 20, 4, 2, 2, 4, 0.7, 0.4, right, 2, 0.3, 0.4, 0.6, 0.7, 0.8420604999409989, 1, 99.99960327148438, 1.8499847000930458, 11.000000, 80.000000, 3.000000,3.000000,1.000000,6.000000,0.500000,1.000000
27, test, 6, no_probe, 21, 3, 1, 3, 1, 0.6, 0.3, left, 1, 0.3, 0.4, 0.6, 0.7, 1.7470259999390692, 1, , , 12.000000, 81.000000, 1.000000,3.000000,1.000000,6.000000,0.500000,1.000000
27, test, 6, no_probe, 22, 3, 1, 1, 3, 0.6, 0.3, right, 2, 0.3, 0.4, 0.6, 0.7, 1.2501583999255672, 1, , , 13.000000, 82.000000, 2.000000,3.000000,1.000000,6.000000,0.500000,1.000000
27, test, 6, probe, 23, 3, 4, 4, 3, 0.6, 0.7, right, 2, 0.3, 0.4, 0.6, 0.7, 0.5377798000117764, 0, 99.9990234375, 2.249947200063616, 13.000000, 82.000000, 3.000000,3.000000,1.000000,6.000000,0.500000,1.000000
27, test, 6, no_probe, 24, 3, 1, 3, 1, 0.6, 0.3, left, 1, 0.3, 0.4, 0.6, 0.7, 0.7704615000402555, 1, , , 14.000000, 83.000000, 1.000000,2.000000,1.000000,6.000000,0.500000,1.000000
27, test, 6, probe, 25, 2, 3, 3, 2, 0.4, 0.6, right, 2, 0.3, 0.4, 0.6, 0.7, 1.7599292000522837, 1, 99.86505126953125, 1.716643299907446, 15.000000, 84.000000, 2.000000,2.000000,1.000000,6.000000,0.500000,1.000000
27, test, 7, no_probe, 1, 4, 1, 1, 4, 0.7, 0.3, right, 2, 0.3, 0.4, 0.6, 0.7, 0.9281009000260383, 0, , , 0.000000, 84.000000, 1.000000,3.000000,1.000000,6.000000,0.500000,1.000000
27, test, 7, no_probe, 2, 1, 3, 1, 3, 0.3, 0.6, left, 1, 0.3, 0.4, 0.6, 0.7, 1.580644000088796, 1, , , 1.000000, 85.000000, 2.000000,3.000000,1.000000,6.000000,0.500000,1.000000
27, test, 7, probe, 3, 2, 4, 4, 2, 0.4, 0.7, right, 2, 0.3, 0.4, 0.6, 0.7, 1.5023726999061182, 0, 100, 4.4329007000196725, 1.000000, 85.000000, 3.000000,3.000000,1.000000,6.000000,0.500000,1.000000
27, test, 7, no_probe, 4, 3, 2, 3, 2, 0.6, 0.4, left, 1, 0.3, 0.4, 0.6, 0.7, 2.328922800021246, 1, , , 2.000000, 86.000000, 1.000000,3.000000,1.000000,6.000000,0.500000,1.000000
27, test, 7, no_probe, 5, 4, 2, 4, 2, 0.7, 0.4, left, 1, 0.3, 0.4, 0.6, 0.7, 0.9665238000452518, 0, , , 2.000000, 86.000000, 2.000000,3.000000,1.000000,6.000000,0.500000,1.000000
27, test, 7, probe, 6, 3, 4, 4, 3, 0.6, 0.7, right, 2, 0.3, 0.4, 0.6, 0.7, 1.196951700025238, 1, 99.17562866210938, 1.5832877000793815, 3.000000, 87.000000, 3.000000,3.000000,1.000000,6.000000,0.500000,1.000000
27, test, 7, no_probe, 7, 4, 1, 4, 1, 0.7, 0.3, left, 1, 0.3, 0.4, 0.6, 0.7, 0.7016268000006676, 1, , , 4.000000, 88.000000, 1.000000,3.000000,1.000000,6.000000,0.500000,1.000000
27, test, 7, no_probe, 8, 2, 1, 1, 2, 0.4, 0.3, right, 2, 0.3, 0.4, 0.6, 0.7, 1.7035009000683203, 1, , , 5.000000, 89.000000, 2.000000,3.000000,1.000000,6.000000,0.500000,1.000000
27, test, 7, probe, 9, 2, 1, 2, 1, 0.4, 0.3, left, 1, 0.3, 0.4, 0.6, 0.7, 0.4317322000861168, 0, 99.99966430664062, 1.9333181000547484, 5.000000, 89.000000, 3.000000,3.000000,1.000000,6.000000,0.500000,1.000000
27, test, 7, no_probe, 10, 4, 3, 4, 3, 0.7, 0.6, left, 1, 0.3, 0.4, 0.6, 0.7, 0.7365393000654876, 1, , , 6.000000, 90.000000, 1.000000,3.000000,1.000000,6.000000,0.500000,1.000000
27, test, 7, no_probe, 11, 1, 3, 3, 1, 0.3, 0.6, right, 2, 0.3, 0.4, 0.6, 0.7, 0.5422994999680668, 0, , , 6.000000, 90.000000, 2.000000,3.000000,1.000000,6.000000,0.500000,1.000000
27, test, 7, probe, 12, 4, 2, 4, 2, 0.7, 0.4, left, 1, 0.3, 0.4, 0.6, 0.7, 1.0491493999725208, 0, 78.13272094726562, 1.599961100029759, 6.000000, 90.000000, 3.000000,3.000000,1.000000,6.000000,0.500000,1.000000
27, test, 7, no_probe, 13, 1, 4, 4, 1, 0.3, 0.7, right, 2, 0.3, 0.4, 0.6, 0.7, 0.6509068000596017, 0, , , 6.000000, 90.000000, 1.000000,3.000000,1.000000,6.000000,0.500000,1.000000
27, test, 7, no_probe, 14, 3, 1, 1, 3, 0.6, 0.3, right, 2, 0.3, 0.4, 0.6, 0.7, 1.2157048999797553, 1, , , 7.000000, 91.000000, 2.000000,3.000000,1.000000,6.000000,0.500000,1.000000
27, test, 7, probe, 15, 3, 4, 4, 3, 0.6, 0.7, right, 2, 0.3, 0.4, 0.6, 0.7, 1.0402899999171495, 1, 95.98016357421875, 1.9000106999883428, 8.000000, 92.000000, 3.000000,3.000000,1.000000,6.000000,0.500000,1.000000
27, test, 7, no_probe, 16, 3, 4, 4, 3, 0.6, 0.7, right, 2, 0.3, 0.4, 0.6, 0.7, 0.6182588000083342, 0, , , 8.000000, 92.000000, 1.000000,3.000000,1.000000,6.000000,0.500000,1.000000
27, test, 7, no_probe, 17, 4, 2, 4, 2, 0.7, 0.4, left, 1, 0.3, 0.4, 0.6, 0.7, 0.37558959994930774, 1, , , 9.000000, 93.000000, 2.000000,3.000000,1.000000,6.000000,0.500000,1.000000
27, test, 7, probe, 18, 2, 3, 3, 2, 0.4, 0.6, right, 2, 0.3, 0.4, 0.6, 0.7, 1.4248033000621945, 0, 99.999755859375, 1.8500002999790013, 9.000000, 93.000000, 3.000000,3.000000,1.000000,6.000000,0.500000,1.000000
27, test, 7, no_probe, 19, 3, 4, 3, 4, 0.6, 0.7, left, 1, 0.3, 0.4, 0.6, 0.7, 0.6540716000599787, 1, , , 10.000000, 94.000000, 1.000000,3.000000,1.000000,6.000000,0.500000,1.000000
27, test, 7, no_probe, 20, 4, 1, 4, 1, 0.7, 0.3, left, 1, 0.3, 0.4, 0.6, 0.7, 0.6940669999457896, 0, , , 10.000000, 94.000000, 2.000000,3.000000,1.000000,6.000000,0.500000,1.000000
27, test, 7, probe, 21, 3, 1, 3, 1, 0.6, 0.3, left, 1, 0.3, 0.4, 0.6, 0.7, 1.3116703999694437, 1, 97.92410278320312, 1.6999867000849918, 11.000000, 95.000000, 3.000000,3.000000,1.000000,6.000000,0.500000,1.000000
27, test, 7, no_probe, 22, 2, 3, 2, 3, 0.4, 0.6, left, 1, 0.3, 0.4, 0.6, 0.7, 0.6756328000919893, 0, , , 11.000000, 95.000000, 1.000000,2.000000,1.000000,6.000000,0.500000,1.000000
27, test, 7, probe, 23, 4, 1, 1, 4, 0.7, 0.3, right, 2, 0.3, 0.4, 0.6, 0.7, 1.1298653000267223, 0, 82.48849487304688, 3.3499531999696046, 11.000000, 95.000000, 2.000000,2.000000,1.000000,6.000000,0.500000,1.000000
27, test, 7, no_probe, 24, 3, 2, 2, 3, 0.6, 0.4, right, 2, 0.3, 0.4, 0.6, 0.7, 1.1511932999128476, 0, , , 11.000000, 95.000000, 1.000000,2.000000,1.000000,6.000000,0.500000,1.000000
27, test, 7, probe, 25, 4, 3, 4, 3, 0.7, 0.6, left, 1, 0.3, 0.4, 0.6, 0.7, 1.443297200021334, 1, 91.29678344726562, 1.4833165999734774, 12.000000, 96.000000, 2.000000,2.000000,1.000000,6.000000,0.500000,1.000000
27, test, 8, no_probe, 1, 4, 2, 2, 4, 0.7, 0.4, right, 2, 0.3, 0.4, 0.6, 0.7, 0.4812732000136748, 1, , , 1.000000, 97.000000, 1.000000,2.000000,1.000000,6.000000,0.500000,1.000000
27, test, 8, probe, 2, 1, 3, 1, 3, 0.3, 0.6, left, 1, 0.3, 0.4, 0.6, 0.7, 0.7274794999975711, 0, 81.77200317382812, 1.9666416000109166, 1.000000, 97.000000, 2.000000,2.000000,1.000000,6.000000,0.500000,1.000000
27, test, 8, no_probe, 3, 3, 1, 3, 1, 0.6, 0.3, left, 1, 0.3, 0.4, 0.6, 0.7, 0.7507818999001756, 1, , , 2.000000, 98.000000, 1.000000,3.000000,1.000000,6.000000,0.500000,1.000000
27, test, 8, no_probe, 4, 3, 1, 1, 3, 0.6, 0.3, right, 2, 0.3, 0.4, 0.6, 0.7, 0.5514869999606162, 1, , , 3.000000, 99.000000, 2.000000,3.000000,1.000000,6.000000,0.500000,1.000000
27, test, 8, probe, 5, 3, 4, 3, 4, 0.6, 0.7, left, 1, 0.3, 0.4, 0.6, 0.7, 0.7110708999680355, 1, 99.9991455078125, 2.3498276999453083, 4.000000, 100.000000, 3.000000,3.000000,1.000000,6.000000,0.500000,1.000000
27, test, 8, no_probe, 6, 4, 1, 4, 1, 0.7, 0.3, left, 1, 0.3, 0.4, 0.6, 0.7, 0.6441653000656515, 1, , , 5.000000, 101.000000, 1.000000,2.000000,1.000000,6.000000,0.500000,1.000000
27, test, 8, probe, 7, 4, 3, 4, 3, 0.7, 0.6, left, 1, 0.3, 0.4, 0.6, 0.7, 0.4850986999226734, 0, 99.64492797851562, 1.7333148000761867, 5.000000, 101.000000, 2.000000,2.000000,1.000000,6.000000,0.500000,1.000000
27, test, 8, no_probe, 8, 3, 2, 3, 2, 0.6, 0.4, left, 1, 0.3, 0.4, 0.6, 0.7, 1.3764991000061855, 0, , , 5.000000, 101.000000, 1.000000,2.000000,1.000000,6.000000,0.500000,1.000000
27, test, 8, probe, 9, 2, 4, 2, 4, 0.4, 0.7, left, 1, 0.3, 0.4, 0.6, 0.7, 1.0981767000630498, 1, 99.9993896484375, 2.0665541000198573, 6.000000, 102.000000, 2.000000,2.000000,1.000000,6.000000,0.500000,1.000000
27, test, 8, no_probe, 10, 3, 4, 3, 4, 0.6, 0.7, left, 1, 0.3, 0.4, 0.6, 0.7, 0.7391075999476016, 1, , , 7.000000, 103.000000, 1.000000,2.000000,1.000000,6.000000,0.500000,1.000000
27, test, 8, probe, 11, 3, 1, 3, 1, 0.6, 0.3, left, 1, 0.3, 0.4, 0.6, 0.7, 0.7396329999901354, 0, 99.9989013671875, 2.1666413999628276, 7.000000, 103.000000, 2.000000,2.000000,1.000000,6.000000,0.500000,1.000000
27, test, 8, no_probe, 12, 3, 2, 3, 2, 0.6, 0.4, left, 1, 0.3, 0.4, 0.6, 0.7, 0.6288348999805748, 0, , , 7.000000, 103.000000, 1.000000,2.000000,1.000000,6.000000,0.500000,1.000000
27, test, 8, probe, 13, 2, 1, 1, 2, 0.4, 0.3, right, 2, 0.3, 0.4, 0.6, 0.7, 0.5593172999797389, 0, 99.4925537109375, 1.733314000070095, 7.000000, 103.000000, 2.000000,2.000000,1.000000,6.000000,0.500000,1.000000
27, test, 8, no_probe, 14, 2, 3, 3, 2, 0.4, 0.6, right, 2, 0.3, 0.4, 0.6, 0.7, 0.9053075999254361, 1, , , 8.000000, 104.000000, 1.000000,3.000000,1.000000,6.000000,0.500000,1.000000
27, test, 8, no_probe, 15, 3, 2, 3, 2, 0.6, 0.4, left, 1, 0.3, 0.4, 0.6, 0.7, 0.3988318999763578, 0, , , 8.000000, 104.000000, 2.000000,3.000000,1.000000,6.000000,0.500000,1.000000
27, test, 8, probe, 16, 2, 4, 2, 4, 0.4, 0.7, left, 1, 0.3, 0.4, 0.6, 0.7, 1.4747961999382824, 1, 99.41537475585938, 1.8500003000954166, 9.000000, 105.000000, 3.000000,3.000000,1.000000,6.000000,0.500000,1.000000
27, test, 8, no_probe, 17, 4, 1, 4, 1, 0.7, 0.3, left, 1, 0.3, 0.4, 0.6, 0.7, 0.9478982000146061, 1, , , 10.000000, 106.000000, 1.000000,2.000000,1.000000,6.000000,0.500000,1.000000
27, test, 8, probe, 18, 2, 3, 2, 3, 0.4, 0.6, left, 1, 0.3, 0.4, 0.6, 0.7, 1.1149542999919504, 1, 98.83099365234375, 1.8166049999417737, 11.000000, 107.000000, 2.000000,2.000000,1.000000,6.000000,0.500000,1.000000
27, test, 8, no_probe, 19, 3, 4, 4, 3, 0.6, 0.7, right, 2, 0.3, 0.4, 0.6, 0.7, 1.5896591999335214, 0, , , 11.000000, 107.000000, 1.000000,3.000000,1.000000,6.000000,0.500000,1.000000
27, test, 8, no_probe, 20, 4, 1, 4, 1, 0.7, 0.3, left, 1, 0.3, 0.4, 0.6, 0.7, 0.870955100050196, 1, , , 12.000000, 108.000000, 2.000000,3.000000,1.000000,6.000000,0.500000,1.000000
27, test, 8, probe, 21, 3, 1, 1, 3, 0.6, 0.3, right, 2, 0.3, 0.4, 0.6, 0.7, 0.5225752999540418, 0, 99.99948120117188, 1.8000097000040114, 12.000000, 108.000000, 3.000000,3.000000,1.000000,6.000000,0.500000,1.000000
27, test, 8, no_probe, 22, 3, 1, 3, 1, 0.6, 0.3, left, 1, 0.3, 0.4, 0.6, 0.7, 0.5089068999513984, 1, , , 13.000000, 109.000000, 1.000000,2.000000,1.000000,6.000000,0.500000,1.000000
27, test, 8, probe, 23, 2, 1, 2, 1, 0.4, 0.3, left, 1, 0.3, 0.4, 0.6, 0.7, 1.334423499996774, 1, 99.99951171875, 1.9166943000163883, 14.000000, 110.000000, 2.000000,2.000000,1.000000,6.000000,0.500000,1.000000
27, test, 8, no_probe, 24, 3, 2, 3, 2, 0.6, 0.4, left, 1, 0.3, 0.4, 0.6, 0.7, 0.6761331999441609, 1, , , 15.000000, 111.000000, 1.000000,3.000000,1.000000,6.000000,0.500000,1.000000
27, test, 8, no_probe, 25, 2, 3, 2, 3, 0.4, 0.6, left, 1, 0.3, 0.4, 0.6, 0.7, 3.300089000025764, 1, , , 16.000000, 112.000000, 2.000000,3.000000,1.000000,6.000000,0.500000,1.000000
