subject, block_type, block, thought probe, trial, chosen, unchosen, offer_left_image, offer_right_image, exp_value_chosen, exp_value_unchosen, choice_location, choice_key, exp_value1, exp_value2, exp_value3, exp_value4, RT, reward, vas, RT_vas, coins_per_block, coins_per_task, count_to_prob, ntrial_to_prob, ITI_duration,RT_deadline,choice_feedback_duration,outcome_duration
57, test, 1, no_probe, 1, 2, 4, 4, 2, 0.4, 0.7, right, 2, 0.3, 0.4, 0.6, 0.7, 2.0232273996807635, 0, , , 0.000000, 0.000000, 1.000000,3.000000,1.000000,6.000000,0.500000,1.000000
57, test, 1, no_probe, 2, 2, 1, 2, 1, 0.4, 0.3, left, 1, 0.3, 0.4, 0.6, 0.7, 0.5708167999982834, 0, , , 0.000000, 0.000000, 2.000000,3.000000,1.000000,6.000000,0.500000,1.000000
57, test, 1, probe, 3, 3, 2, 3, 2, 0.6, 0.4, left, 1, 0.3, 0.4, 0.6, 0.7, 0.6731688999570906, 0, 99.9991455078125, 6.283225600142032, 0.000000, 0.000000, 3.000000,3.000000,1.000000,6.000000,0.500000,1.000000
57, test, 1, no_probe, 4, 3, 2, 3, 2, 0.6, 0.4, left, 1, 0.3, 0.4, 0.6, 0.7, 0.8840225003659725, 1, , , 1.000000, 1.000000, 1.000000,2.000000,1.000000,6.000000,0.500000,1.000000
57, test, 1, probe, 5, 3, 2, 3, 2, 0.6, 0.4, left, 1, 0.3, 0.4, 0.6, 0.7, 0.38621450029313564, 1, 99.99978637695312, 2.199926999863237, 2.000000, 2.000000, 2.000000,2.000000,1.000000,6.000000,0.500000,1.000000
57, test, 1, no_probe, 6, 4, 1, 4, 1, 0.7, 0.3, left, 1, 0.3, 0.4, 0.6, 0.7, 0.714088199660182, 1, , , 3.000000, 3.000000, 1.000000,3.000000,1.000000,6.000000,0.500000,1.000000
57, test, 1, no_probe, 1, 4, 2, 2, 4, 0.7, 0.4, right, 2, 0.3, 0.4, 0.6, 0.7, 0.40426870016381145, 0, , , 0.000000, 3.000000, 1.000000,2.000000,1.000000,6.000000,0.500000,1.000000
57, test, 1, probe, 2, 1, 4, 1, 4, 0.3, 0.7, left, 1, 0.3, 0.4, 0.6, 0.7, 0.5109590999782085, 0, 99.99966430664062, 2.9332643998786807, 0.000000, 3.000000, 2.000000,2.000000,1.000000,6.000000,0.500000,1.000000
57, test, 1, no_probe, 3, 2, 1, 1, 2, 0.4, 0.3, right, 2, 0.3, 0.4, 0.6, 0.7, 0.4755176999606192, 0, , , 0.000000, 3.000000, 1.000000,3.000000,1.000000,6.000000,0.500000,1.000000
57, test, 1, no_probe, 4, 3, 1, 3, 1, 0.6, 0.3, left, 1, 0.3, 0.4, 0.6, 0.7, 0.45541279995813966, 0, , , 0.000000, 3.000000, 2.000000,3.000000,1.000000,6.000000,0.500000,1.000000
57, test, 1, probe, 5, 3, 2, 2, 3, 0.6, 0.4, right, 2, 0.3, 0.4, 0.6, 0.7, 0.27422040002420545, 1, 99.999755859375, 1.8333217999897897, 1.000000, 4.000000, 3.000000,3.000000,1.000000,6.000000,0.500000,1.000000
57, test, 1, no_probe, 6, 1, 2, 1, 2, 0.3, 0.4, left, 1, 0.3, 0.4, 0.6, 0.7, 0.43869439978152514, 0, , , 1.000000, 4.000000, 1.000000,2.000000,1.000000,6.000000,0.500000,1.000000
57, test, 1, probe, 7, 3, 4, 4, 3, 0.6, 0.7, right, 2, 0.3, 0.4, 0.6, 0.7, 0.7937588999047875, 0, 99.99978637695312, 1.8333479999564588, 1.000000, 4.000000, 2.000000,2.000000,1.000000,6.000000,0.500000,1.000000
57, test, 1, no_probe, 8, 3, 1, 1, 3, 0.6, 0.3, right, 2, 0.3, 0.4, 0.6, 0.7, 0.5023755999282002, 1, , , 2.000000, 5.000000, 1.000000,3.000000,1.000000,6.000000,0.500000,1.000000
57, test, 1, no_probe, 9, 1, 2, 2, 1, 0.3, 0.4, right, 2, 0.3, 0.4, 0.6, 0.7, 0.8392433999106288, 0, , , 2.000000, 5.000000, 2.000000,3.000000,1.000000,6.000000,0.500000,1.000000
57, test, 1, probe, 10, 3, 1, 1, 3, 0.6, 0.3, right, 2, 0.3, 0.4, 0.6, 0.7, 0.4112648000009358, 0, 99.99978637695312, 1.8833222999237478, 2.000000, 5.000000, 3.000000,3.000000,1.000000,6.000000,0.500000,1.000000
57, test, 1, no_probe, 11, 3, 2, 2, 3, 0.6, 0.4, right, 2, 0.3, 0.4, 0.6, 0.7, 0.5395734999328852, 1, , , 3.000000, 6.000000, 1.000000,3.000000,1.000000,6.000000,0.500000,1.000000
57, test, 1, no_probe, 12, 2, 4, 4, 2, 0.4, 0.7, right, 2, 0.3, 0.4, 0.6, 0.7, 0.6960335001349449, 0, , , 3.000000, 6.000000, 2.000000,3.000000,1.000000,6.000000,0.500000,1.000000
57, test, 1, probe, 13, 2, 4, 2, 4, 0.4, 0.7, left, 1, 0.3, 0.4, 0.6, 0.7, 0.5476824003271759, 1, 99.99978637695312, 1.682942499872297, 4.000000, 7.000000, 3.000000,3.000000,1.000000,6.000000,0.500000,1.000000
57, test, 1, no_probe, 14, 2, 1, 1, 2, 0.4, 0.3, right, 2, 0.3, 0.4, 0.6, 0.7, 0.3590989001095295, 1, , , 5.000000, 8.000000, 1.000000,2.000000,1.000000,6.000000,0.500000,1.000000
57, test, 1, probe, 15, 2, 4, 2, 4, 0.4, 0.7, left, 1, 0.3, 0.4, 0.6, 0.7, 0.4674228997901082, 1, 100, 1.9833010998554528, 6.000000, 9.000000, 2.000000,2.000000,1.000000,6.000000,0.500000,1.000000
57, test, 1, no_probe, 16, 2, 4, 4, 2, 0.4, 0.7, right, 2, 0.3, 0.4, 0.6, 0.7, 0.46147470036521554, 0, , , 6.000000, 9.000000, 1.000000,3.000000,1.000000,6.000000,0.500000,1.000000
57, test, 1, no_probe, 17, 1, 2, 1, 2, 0.3, 0.4, left, 1, 0.3, 0.4, 0.6, 0.7, 0.6350871999748051, 0, , , 6.000000, 9.000000, 2.000000,3.000000,1.000000,6.000000,0.500000,1.000000
57, test, 1, probe, 18, 2, 1, 1, 2, 0.4, 0.3, right, 2, 0.3, 0.4, 0.6, 0.7, 0.41993770003318787, 0, 99.99981689453125, 1.7499798000790179, 6.000000, 9.000000, 3.000000,3.000000,1.000000,6.000000,0.500000,1.000000
57, test, 1, no_probe, 19, 3, 1, 1, 3, 0.6, 0.3, right, 2, 0.3, 0.4, 0.6, 0.7, 0.5246067000553012, 0, , , 6.000000, 9.000000, 1.000000,3.000000,1.000000,6.000000,0.500000,1.000000
57, test, 1, no_probe, 20, 1, 2, 1, 2, 0.3, 0.4, left, 1, 0.3, 0.4, 0.6, 0.7, 0.574246000032872, 0, , , 6.000000, 9.000000, 2.000000,3.000000,1.000000,6.000000,0.500000,1.000000
57, test, 1, probe, 21, 3, 4, 3, 4, 0.6, 0.7, left, 1, 0.3, 0.4, 0.6, 0.7, 0.6874718000181019, 0, 88.64996337890625, 1.4499822999350727, 6.000000, 9.000000, 3.000000,3.000000,1.000000,6.000000,0.500000,1.000000
57, test, 1, no_probe, 22, 3, 2, 2, 3, 0.6, 0.4, right, 2, 0.3, 0.4, 0.6, 0.7, 0.5953958998434246, 1, , , 7.000000, 10.000000, 1.000000,3.000000,1.000000,6.000000,0.500000,1.000000
57, test, 1, no_probe, 23, 3, 1, 3, 1, 0.6, 0.3, left, 1, 0.3, 0.4, 0.6, 0.7, 0.9475207002833486, 1, , , 8.000000, 11.000000, 2.000000,3.000000,1.000000,6.000000,0.500000,1.000000
57, test, 1, probe, 24, 3, 4, 4, 3, 0.6, 0.7, right, 2, 0.3, 0.4, 0.6, 0.7, 0.4725099001079798, 1, 99.99981689453125, 1.5999572998844087, 9.000000, 12.000000, 3.000000,3.000000,1.000000,6.000000,0.500000,1.000000
57, test, 1, no_probe, 25, 3, 1, 3, 1, 0.6, 0.3, left, 1, 0.3, 0.4, 0.6, 0.7, 0.5323697999119759, 1, , , 10.000000, 13.000000, 1.000000,2.000000,1.000000,6.000000,0.500000,1.000000
57, test, 2, no_probe, 1, 4, 2, 2, 4, 0.7, 0.4, right, 2, 0.3, 0.4, 0.6, 0.7, 0.4093190999701619, 1, , , 1.000000, 14.000000, 1.000000,2.000000,1.000000,6.000000,0.500000,1.000000
57, test, 2, probe, 2, 4, 3, 4, 3, 0.7, 0.6, left, 1, 0.3, 0.4, 0.6, 0.7, 0.4107621000148356, 1, 99.99981689453125, 1.8497461001388729, 2.000000, 15.000000, 2.000000,2.000000,1.000000,6.000000,0.500000,1.000000
57, test, 2, no_probe, 3, 4, 3, 3, 4, 0.7, 0.6, right, 2, 0.3, 0.4, 0.6, 0.7, 0.4175645001232624, 1, , , 3.000000, 16.000000, 1.000000,3.000000,1.000000,6.000000,0.500000,1.000000
57, test, 2, no_probe, 4, 4, 1, 1, 4, 0.7, 0.3, right, 2, 0.3, 0.4, 0.6, 0.7, 0.3625068999826908, 1, , , 4.000000, 17.000000, 2.000000,3.000000,1.000000,6.000000,0.500000,1.000000
57, test, 2, probe, 5, 2, 3, 3, 2, 0.4, 0.6, right, 2, 0.3, 0.4, 0.6, 0.7, 0.9288761001080275, 0, 100, 1.533309900201857, 4.000000, 17.000000, 3.000000,3.000000,1.000000,6.000000,0.500000,1.000000
57, test, 2, no_probe, 6, 1, 4, 4, 1, 0.3, 0.7, right, 2, 0.3, 0.4, 0.6, 0.7, 0.7231903998181224, 0, , , 4.000000, 17.000000, 1.000000,3.000000,1.000000,6.000000,0.500000,1.000000
57, test, 2, no_probe, 7, 3, 1, 3, 1, 0.6, 0.3, left, 1, 0.3, 0.4, 0.6, 0.7, 0.7149658002890646, 0, , , 4.000000, 17.000000, 2.000000,3.000000,1.000000,6.000000,0.500000,1.000000
57, test, 2, probe, 8, 2, 4, 4, 2, 0.4, 0.7, right, 2, 0.3, 0.4, 0.6, 0.7, 0.5362205998972058, 0, 97.66656494140625, 1.4333291999064386, 4.000000, 17.000000, 3.000000,3.000000,1.000000,6.000000,0.500000,1.000000
57, test, 2, no_probe, 9, 2, 3, 2, 3, 0.4, 0.6, left, 1, 0.3, 0.4, 0.6, 0.7, 0.5970852999016643, 0, , , 4.000000, 17.000000, 1.000000,3.000000,1.000000,6.000000,0.500000,1.000000
57, test, 2, no_probe, 10, 3, 1, 3, 1, 0.6, 0.3, left, 1, 0.3, 0.4, 0.6, 0.7, 0.8974873996339738, 1, , , 5.000000, 18.000000, 2.000000,3.000000,1.000000,6.000000,0.500000,1.000000
57, test, 2, probe, 11, 4, 1, 4, 1, 0.7, 0.3, left, 1, 0.3, 0.4, 0.6, 0.7, 0.519596999976784, 1, 100, 1.6833374998532236, 6.000000, 19.000000, 3.000000,3.000000,1.000000,6.000000,0.500000,1.000000
57, test, 2, no_probe, 12, 2, 3, 2, 3, 0.4, 0.6, left, 1, 0.3, 0.4, 0.6, 0.7, 1.0190832996740937, 0, , , 6.000000, 19.000000, 1.000000,3.000000,1.000000,6.000000,0.500000,1.000000
57, test, 2, no_probe, 13, 2, 1, 2, 1, 0.4, 0.3, left, 1, 0.3, 0.4, 0.6, 0.7, 1.128439700230956, 0, , , 6.000000, 19.000000, 2.000000,3.000000,1.000000,6.000000,0.500000,1.000000
57, test, 2, probe, 14, 3, 2, 3, 2, 0.6, 0.4, left, 1, 0.3, 0.4, 0.6, 0.7, 0.6581431999802589, 0, 100, 1.4165652999654412, 6.000000, 19.000000, 3.000000,3.000000,1.000000,6.000000,0.500000,1.000000
57, test, 2, no_probe, 15, 4, 1, 1, 4, 0.7, 0.3, right, 2, 0.3, 0.4, 0.6, 0.7, 0.5219975002110004, 0, , , 6.000000, 19.000000, 1.000000,2.000000,1.000000,6.000000,0.500000,1.000000
57, test, 2, probe, 16, 1, 3, 3, 1, 0.3, 0.6, right, 2, 0.3, 0.4, 0.6, 0.7, 0.6708163996227086, 1, 99.99978637695312, 1.6999778002500534, 7.000000, 20.000000, 2.000000,2.000000,1.000000,6.000000,0.500000,1.000000
57, test, 2, no_probe, 17, 1, 2, 1, 2, 0.3, 0.4, left, 1, 0.3, 0.4, 0.6, 0.7, 0.5371180004440248, 0, , , 7.000000, 20.000000, 1.000000,2.000000,1.000000,6.000000,0.500000,1.000000
57, test, 2, probe, 18, 4, 1, 4, 1, 0.7, 0.3, left, 1, 0.3, 0.4, 0.6, 0.7, 0.7851068000309169, 0, 100, 1.5167235997505486, 7.000000, 20.000000, 2.000000,2.000000,1.000000,6.000000,0.500000,1.000000
57, test, 2, no_probe, 19, 4, 1, 1, 4, 0.7, 0.3, right, 2, 0.3, 0.4, 0.6, 0.7, 0.6177563001401722, 1, , , 8.000000, 21.000000, 1.000000,3.000000,1.000000,6.000000,0.500000,1.000000
57, test, 2, no_probe, 20, 4, 1, 4, 1, 0.7, 0.3, left, 1, 0.3, 0.4, 0.6, 0.7, 0.49782569985836744, 1, , , 9.000000, 22.000000, 2.000000,3.000000,1.000000,6.000000,0.500000,1.000000
57, test, 2, probe, 21, 3, 1, 1, 3, 0.6, 0.3, right, 2, 0.3, 0.4, 0.6, 0.7, 0.9947027997113764, 1, 99.99978637695312, 1.349983099848032, 10.000000, 23.000000, 3.000000,3.000000,1.000000,6.000000,0.500000,1.000000
57, test, 2, no_probe, 22, 2, 1, 1, 2, 0.4, 0.3, right, 2, 0.3, 0.4, 0.6, 0.7, 0.9538901001214981, 0, , , 10.000000, 23.000000, 1.000000,2.000000,1.000000,6.000000,0.500000,1.000000
57, test, 2, probe, 23, 4, 3, 3, 4, 0.7, 0.6, right, 2, 0.3, 0.4, 0.6, 0.7, 0.5157896000891924, 1, 59.5052490234375, 0.8666414995677769, 11.000000, 24.000000, 2.000000,2.000000,1.000000,6.000000,0.500000,1.000000
57, test, 2, no_probe, 24, 3, 4, 4, 3, 0.6, 0.7, right, 2, 0.3, 0.4, 0.6, 0.7, 0.5531009999103844, 1, , , 12.000000, 25.000000, 1.000000,3.000000,1.000000,6.000000,0.500000,1.000000
57, test, 2, no_probe, 25, 4, 2, 4, 2, 0.7, 0.4, left, 1, 0.3, 0.4, 0.6, 0.7, 0.3965337001718581, 1, , , 13.000000, 26.000000, 2.000000,3.000000,1.000000,6.000000,0.500000,1.000000
57, test, 3, no_probe, 1, 1, 3, 3, 1, 0.3, 0.6, right, 2, 0.3, 0.4, 0.6, 0.7, 0.8518969002179801, 0, , , 0.000000, 26.000000, 1.000000,2.000000,1.000000,6.000000,0.500000,1.000000
57, test, 3, probe, 2, 4, 1, 4, 1, 0.7, 0.3, left, 1, 0.3, 0.4, 0.6, 0.7, 0.5714736003428698, 1, 99.999755859375, 1.7999839996919036, 1.000000, 27.000000, 2.000000,2.000000,1.000000,6.000000,0.500000,1.000000
57, test, 3, no_probe, 3, 1, 3, 3, 1, 0.3, 0.6, right, 2, 0.3, 0.4, 0.6, 0.7, 0.6928400001488626, 0, , , 1.000000, 27.000000, 1.000000,3.000000,1.000000,6.000000,0.500000,1.000000
57, test, 3, no_probe, 4, 4, 3, 3, 4, 0.7, 0.6, right, 2, 0.3, 0.4, 0.6, 0.7, 0.8281950997188687, 0, , , 1.000000, 27.000000, 2.000000,3.000000,1.000000,6.000000,0.500000,1.000000
57, test, 3, probe, 5, 4, 3, 3, 4, 0.7, 0.6, right, 2, 0.3, 0.4, 0.6, 0.7, 0.6838945997878909, 1, 93.79376220703125, 1.2499643000774086, 2.000000, 28.000000, 3.000000,3.000000,1.000000,6.000000,0.500000,1.000000
57, test, 3, no_probe, 6, 1, 2, 2, 1, 0.3, 0.4, right, 2, 0.3, 0.4, 0.6, 0.7, 0.6029008999466896, 1, , , 3.000000, 29.000000, 1.000000,3.000000,1.000000,6.000000,0.500000,1.000000
57, test, 3, no_probe, 7, 1, 4, 4, 1, 0.3, 0.7, right, 2, 0.3, 0.4, 0.6, 0.7, 0.503691999707371, 1, , , 4.000000, 30.000000, 2.000000,3.000000,1.000000,6.000000,0.500000,1.000000
57, test, 3, probe, 8, 1, 2, 2, 1, 0.3, 0.4, right, 2, 0.3, 0.4, 0.6, 0.7, 0.3622145000845194, 0, 100, 1.5832802997902036, 4.000000, 30.000000, 3.000000,3.000000,1.000000,6.000000,0.500000,1.000000
57, test, 3, no_probe, 9, 1, 3, 3, 1, 0.3, 0.6, right, 2, 0.3, 0.4, 0.6, 0.7, 0.4354388997890055, 1, , , 5.000000, 31.000000, 1.000000,3.000000,1.000000,6.000000,0.500000,1.000000
57, test, 3, no_probe, 10, 1, 3, 1, 3, 0.3, 0.6, left, 1, 0.3, 0.4, 0.6, 0.7, 0.9240917996503413, 1, , , 6.000000, 32.000000, 2.000000,3.000000,1.000000,6.000000,0.500000,1.000000
57, test, 3, probe, 11, 3, 2, 2, 3, 0.6, 0.4, right, 2, 0.3, 0.4, 0.6, 0.7, 0.6290255999192595, 1, 99.99969482421875, 1.4166502999141812, 7.000000, 33.000000, 3.000000,3.000000,1.000000,6.000000,0.500000,1.000000
57, test, 3, no_probe, 12, 3, 4, 3, 4, 0.6, 0.7, left, 1, 0.3, 0.4, 0.6, 0.7, 0.5821422999724746, 0, , , 7.000000, 33.000000, 1.000000,2.000000,1.000000,6.000000,0.500000,1.000000
57, test, 3, probe, 13, 1, 2, 2, 1, 0.3, 0.4, right, 2, 0.3, 0.4, 0.6, 0.7, 0.42007540026679635, 0, 96.12127685546875, 1.516625199932605, 7.000000, 33.000000, 2.000000,2.000000,1.000000,6.000000,0.500000,1.000000
57, test, 3, no_probe, 14, 3, 2, 3, 2, 0.6, 0.4, left, 1, 0.3, 0.4, 0.6, 0.7, 0.6522146002389491, 1, , , 8.000000, 34.000000, 1.000000,2.000000,1.000000,6.000000,0.500000,1.000000
57, test, 3, probe, 15, 4, 1, 1, 4, 0.7, 0.3, right, 2, 0.3, 0.4, 0.6, 0.7, 0.47065010014921427, 1, 100, 1.7166256001219153, 9.000000, 35.000000, 2.000000,2.000000,1.000000,6.000000,0.500000,1.000000
57, test, 3, no_probe, 16, 1, 2, 2, 1, 0.3, 0.4, right, 2, 0.3, 0.4, 0.6, 0.7, 0.4387046000920236, 1, , , 10.000000, 36.000000, 1.000000,2.000000,1.000000,6.000000,0.500000,1.000000
57, test, 3, probe, 17, 1, 3, 1, 3, 0.3, 0.6, left, 1, 0.3, 0.4, 0.6, 0.7, 0.43121099984273314, 1, 99.999755859375, 1.6666517001576722, 11.000000, 37.000000, 2.000000,2.000000,1.000000,6.000000,0.500000,1.000000
57, test, 3, no_probe, 18, 3, 4, 4, 3, 0.6, 0.7, right, 2, 0.3, 0.4, 0.6, 0.7, 0.5720669999718666, 0, , , 11.000000, 37.000000, 1.000000,2.000000,1.000000,6.000000,0.500000,1.000000
57, test, 3, probe, 19, 4, 3, 4, 3, 0.7, 0.6, left, 1, 0.3, 0.4, 0.6, 0.7, 0.6264524003490806, 1, 99.99981689453125, 1.4665818996727467, 12.000000, 38.000000, 2.000000,2.000000,1.000000,6.000000,0.500000,1.000000
57, test, 3, no_probe, 20, 4, 1, 1, 4, 0.7, 0.3, right, 2, 0.3, 0.4, 0.6, 0.7, 0.751399100292474, 0, , , 12.000000, 38.000000, 1.000000,3.000000,1.000000,6.000000,0.500000,1.000000
57, test, 3, no_probe, 21, 4, 2, 2, 4, 0.7, 0.4, right, 2, 0.3, 0.4, 0.6, 0.7, 0.6864489000290632, 1, , , 13.000000, 39.000000, 2.000000,3.000000,1.000000,6.000000,0.500000,1.000000
57, test, 3, probe, 22, 2, 4, 2, 4, 0.4, 0.7, left, 1, 0.3, 0.4, 0.6, 0.7, 0.6529456996358931, 0, 86.84954833984375, 1.1333265001885593, 13.000000, 39.000000, 3.000000,3.000000,1.000000,6.000000,0.500000,1.000000
57, test, 3, no_probe, 23, 2, 4, 4, 2, 0.4, 0.7, right, 2, 0.3, 0.4, 0.6, 0.7, 0.5203777002170682, 1, , , 14.000000, 40.000000, 1.000000,2.000000,1.000000,6.000000,0.500000,1.000000
57, test, 3, probe, 24, 4, 3, 3, 4, 0.7, 0.6, right, 2, 0.3, 0.4, 0.6, 0.7, 0.9335312000475824, 0, 96.9732666015625, 2.0666046999394894, 14.000000, 40.000000, 2.000000,2.000000,1.000000,6.000000,0.500000,1.000000
57, test, 3, no_probe, 25, 4, 3, 3, 4, 0.7, 0.6, right, 2, 0.3, 0.4, 0.6, 0.7, 0.6852878998033702, 1, , , 15.000000, 41.000000, 1.000000,3.000000,1.000000,6.000000,0.500000,1.000000
57, test, 4, no_probe, 1, 1, 3, 1, 3, 0.3, 0.6, left, 1, 0.3, 0.4, 0.6, 0.7, 0.439087700098753, 1, , , 1.000000, 42.000000, 1.000000,3.000000,1.000000,6.000000,0.500000,1.000000
57, test, 4, no_probe, 2, 1, 4, 1, 4, 0.3, 0.7, left, 1, 0.3, 0.4, 0.6, 0.7, 0.786752900108695, 0, , , 1.000000, 42.000000, 2.000000,3.000000,1.000000,6.000000,0.500000,1.000000
57, test, 4, probe, 3, 1, 3, 1, 3, 0.3, 0.6, left, 1, 0.3, 0.4, 0.6, 0.7, 1.0097364000976086, 0, 90.25790405273438, 1.2661830000579357, 1.000000, 42.000000, 3.000000,3.000000,1.000000,6.000000,0.500000,1.000000
57, test, 4, no_probe, 4, 3, 4, 4, 3, 0.6, 0.7, right, 2, 0.3, 0.4, 0.6, 0.7, 0.5668782996945083, 1, , , 2.000000, 43.000000, 1.000000,2.000000,1.000000,6.000000,0.500000,1.000000
57, test, 4, probe, 5, 3, 4, 3, 4, 0.6, 0.7, left, 1, 0.3, 0.4, 0.6, 0.7, 0.504493800457567, 1, 99.99981689453125, 1.5999620002694428, 3.000000, 44.000000, 2.000000,2.000000,1.000000,6.000000,0.500000,1.000000
57, test, 4, no_probe, 6, 2, 1, 1, 2, 0.4, 0.3, right, 2, 0.3, 0.4, 0.6, 0.7, 0.5289096999913454, 1, , , 4.000000, 45.000000, 1.000000,2.000000,1.000000,6.000000,0.500000,1.000000
57, test, 4, probe, 7, 2, 3, 3, 2, 0.4, 0.6, right, 2, 0.3, 0.4, 0.6, 0.7, 0.47885659988969564, 0, 91.77853393554688, 1.316612500231713, 4.000000, 45.000000, 2.000000,2.000000,1.000000,6.000000,0.500000,1.000000
57, test, 4, no_probe, 8, 2, 3, 2, 3, 0.4, 0.6, left, 1, 0.3, 0.4, 0.6, 0.7, 0.47854269994422793, 0, , , 4.000000, 45.000000, 1.000000,2.000000,1.000000,6.000000,0.500000,1.000000
57, test, 4, probe, 9, 3, 4, 4, 3, 0.6, 0.7, right, 2, 0.3, 0.4, 0.6, 0.7, 0.4554449999704957, 1, 93.487060546875, 1.4999486999586225, 5.000000, 46.000000, 2.000000,2.000000,1.000000,6.000000,0.500000,1.000000
57, test, 4, no_probe, 10, 3, 1, 1, 3, 0.6, 0.3, right, 2, 0.3, 0.4, 0.6, 0.7, 0.3951670997776091, 1, , , 6.000000, 47.000000, 1.000000,3.000000,1.000000,6.000000,0.500000,1.000000
57, test, 4, no_probe, 11, 1, 4, 1, 4, 0.3, 0.7, left, 1, 0.3, 0.4, 0.6, 0.7, 0.5875917999073863, 1, , , 7.000000, 48.000000, 2.000000,3.000000,1.000000,6.000000,0.500000,1.000000
57, test, 4, probe, 12, 1, 3, 3, 1, 0.3, 0.6, right, 2, 0.3, 0.4, 0.6, 0.7, 0.47439360013231635, 0, 91.90939331054688, 1.4000364001840353, 7.000000, 48.000000, 3.000000,3.000000,1.000000,6.000000,0.500000,1.000000
57, test, 4, no_probe, 13, 4, 1, 4, 1, 0.7, 0.3, left, 1, 0.3, 0.4, 0.6, 0.7, 0.5663382997736335, 0, , , 7.000000, 48.000000, 1.000000,3.000000,1.000000,6.000000,0.500000,1.000000
57, test, 4, no_probe, 14, 1, 4, 1, 4, 0.3, 0.7, left, 1, 0.3, 0.4, 0.6, 0.7, 0.605366799980402, 0, , , 7.000000, 48.000000, 2.000000,3.000000,1.000000,6.000000,0.500000,1.000000
57, test, 4, probe, 15, 4, 2, 2, 4, 0.7, 0.4, right, 2, 0.3, 0.4, 0.6, 0.7, 1.040022799745202, 0, 77.23065185546875, 1.2666552001610398, 7.000000, 48.000000, 3.000000,3.000000,1.000000,6.000000,0.500000,1.000000
57, test, 4, no_probe, 16, 3, 4, 3, 4, 0.6, 0.7, left, 1, 0.3, 0.4, 0.6, 0.7, 0.5265106000006199, 1, , , 8.000000, 49.000000, 1.000000,2.000000,1.000000,6.000000,0.500000,1.000000
57, test, 4, probe, 17, 3, 4, 3, 4, 0.6, 0.7, left, 1, 0.3, 0.4, 0.6, 0.7, 0.3882788000628352, 1, 72.72732543945312, 1.1166240996681154, 9.000000, 50.000000, 2.000000,2.000000,1.000000,6.000000,0.500000,1.000000
57, test, 4, no_probe, 18, 1, 2, 1, 2, 0.3, 0.4, left, 1, 0.3, 0.4, 0.6, 0.7, 0.8150760000571609, 0, , , 9.000000, 50.000000, 1.000000,3.000000,1.000000,6.000000,0.500000,1.000000
57, test, 4, no_probe, 19, 4, 3, 3, 4, 0.7, 0.6, right, 2, 0.3, 0.4, 0.6, 0.7, 0.36881890008226037, 1, , , 10.000000, 51.000000, 2.000000,3.000000,1.000000,6.000000,0.500000,1.000000
57, test, 4, probe, 20, 1, 3, 3, 1, 0.3, 0.6, right, 2, 0.3, 0.4, 0.6, 0.7, 0.39448839984834194, 0, 69.27301025390625, 1.116666099987924, 10.000000, 51.000000, 3.000000,3.000000,1.000000,6.000000,0.500000,1.000000
57, test, 4, no_probe, 21, 2, 4, 2, 4, 0.4, 0.7, left, 1, 0.3, 0.4, 0.6, 0.7, 0.6074367999099195, 1, , , 11.000000, 52.000000, 1.000000,3.000000,1.000000,6.000000,0.500000,1.000000
57, test, 4, no_probe, 22, 2, 1, 1, 2, 0.4, 0.3, right, 2, 0.3, 0.4, 0.6, 0.7, 0.49593430012464523, 0, , , 11.000000, 52.000000, 2.000000,3.000000,1.000000,6.000000,0.500000,1.000000
57, test, 4, probe, 23, 2, 1, 1, 2, 0.4, 0.3, right, 2, 0.3, 0.4, 0.6, 0.7, 0.4893609997816384, 0, 77.294677734375, 1.0999827003106475, 11.000000, 52.000000, 3.000000,3.000000,1.000000,6.000000,0.500000,1.000000
57, test, 4, no_probe, 24, 1, 4, 1, 4, 0.3, 0.7, left, 1, 0.3, 0.4, 0.6, 0.7, 1.4532543001696467, 1, , , 12.000000, 53.000000, 1.000000,3.000000,1.000000,6.000000,0.500000,1.000000
57, test, 4, no_probe, 25, 1, 2, 2, 1, 0.3, 0.4, right, 2, 0.3, 0.4, 0.6, 0.7, 0.7813805001787841, 0, , , 12.000000, 53.000000, 2.000000,3.000000,1.000000,6.000000,0.500000,1.000000
57, test, 5, no_probe, 1, 1, 2, 2, 1, 0.3, 0.4, right, 2, 0.3, 0.4, 0.6, 0.7, 0.3166327001526952, 0, , , 0.000000, 53.000000, 1.000000,3.000000,1.000000,6.000000,0.500000,1.000000
57, test, 5, no_probe, 2, 2, 3, 2, 3, 0.4, 0.6, left, 1, 0.3, 0.4, 0.6, 0.7, 0.401861899998039, 0, , , 0.000000, 53.000000, 2.000000,3.000000,1.000000,6.000000,0.500000,1.000000
57, test, 5, probe, 3, 2, 4, 4, 2, 0.4, 0.7, right, 2, 0.3, 0.4, 0.6, 0.7, 0.8904983000829816, 1, 79.447021484375, 1.2829483998939395, 1.000000, 54.000000, 3.000000,3.000000,1.000000,6.000000,0.500000,1.000000
57, test, 5, no_probe, 4, 3, 2, 2, 3, 0.6, 0.4, right, 2, 0.3, 0.4, 0.6, 0.7, 0.7237917999736965, 1, , , 2.000000, 55.000000, 1.000000,3.000000,1.000000,6.000000,0.500000,1.000000
57, test, 5, no_probe, 5, 2, 4, 4, 2, 0.4, 0.7, right, 2, 0.3, 0.4, 0.6, 0.7, 1.0576800000853837, 1, , , 3.000000, 56.000000, 2.000000,3.000000,1.000000,6.000000,0.500000,1.000000
57, test, 5, probe, 6, 2, 4, 4, 2, 0.4, 0.7, right, 2, 0.3, 0.4, 0.6, 0.7, 0.7919932003132999, 0, 84.91964721679688, 1.2999815000221133, 3.000000, 56.000000, 3.000000,3.000000,1.000000,6.000000,0.500000,1.000000
57, test, 5, no_probe, 7, 2, 4, 4, 2, 0.4, 0.7, right, 2, 0.3, 0.4, 0.6, 0.7, 0.48934310022741556, 1, , , 4.000000, 57.000000, 1.000000,2.000000,1.000000,6.000000,0.500000,1.000000
57, test, 5, probe, 8, 3, 1, 1, 3, 0.6, 0.3, right, 2, 0.3, 0.4, 0.6, 0.7, 0.71590940002352, 0, 78.31692504882812, 1.2166262003593147, 4.000000, 57.000000, 2.000000,2.000000,1.000000,6.000000,0.500000,1.000000
57, test, 5, no_probe, 9, 1, 2, 2, 1, 0.3, 0.4, right, 2, 0.3, 0.4, 0.6, 0.7, 0.7547535002231598, 0, , , 4.000000, 57.000000, 1.000000,2.000000,1.000000,6.000000,0.500000,1.000000
57, test, 5, probe, 10, 2, 4, 2, 4, 0.4, 0.7, left, 1, 0.3, 0.4, 0.6, 0.7, 0.5418851999565959, 1, 79.01263427734375, 1.1000187997706234, 5.000000, 58.000000, 2.000000,2.000000,1.000000,6.000000,0.500000,1.000000
57, test, 5, no_probe, 11, 4, 2, 4, 2, 0.7, 0.4, left, 1, 0.3, 0.4, 0.6, 0.7, 0.7961308998055756, 1, , , 6.000000, 59.000000, 1.000000,3.000000,1.000000,6.000000,0.500000,1.000000
57, test, 5, no_probe, 12, 4, 3, 4, 3, 0.7, 0.6, left, 1, 0.3, 0.4, 0.6, 0.7, 0.4902262003161013, 0, , , 6.000000, 59.000000, 2.000000,3.000000,1.000000,6.000000,0.500000,1.000000
57, test, 5, probe, 13, 4, 1, 4, 1, 0.7, 0.3, left, 1, 0.3, 0.4, 0.6, 0.7, 0.6551049002446234, 0, 76.81854248046875, 0.8833443997427821, 6.000000, 59.000000, 3.000000,3.000000,1.000000,6.000000,0.500000,1.000000
57, test, 5, no_probe, 14, 3, 4, 4, 3, 0.6, 0.7, right, 2, 0.3, 0.4, 0.6, 0.7, 0.4256040002219379, 0, , , 6.000000, 59.000000, 1.000000,2.000000,1.000000,6.000000,0.500000,1.000000
57, test, 5, probe, 15, 4, 2, 4, 2, 0.7, 0.4, left, 1, 0.3, 0.4, 0.6, 0.7, 0.5108830998651683, 1, 73.94546508789062, 1.3333275998011231, 7.000000, 60.000000, 2.000000,2.000000,1.000000,6.000000,0.500000,1.000000
57, test, 5, no_probe, 16, 3, 2, 3, 2, 0.6, 0.4, left, 1, 0.3, 0.4, 0.6, 0.7, 0.5816486002877355, 0, , , 7.000000, 60.000000, 1.000000,3.000000,1.000000,6.000000,0.500000,1.000000
57, test, 5, no_probe, 17, 2, 4, 4, 2, 0.4, 0.7, right, 2, 0.3, 0.4, 0.6, 0.7, 0.479976000264287, 1, , , 8.000000, 61.000000, 2.000000,3.000000,1.000000,6.000000,0.500000,1.000000
57, test, 5, probe, 18, 2, 3, 3, 2, 0.4, 0.6, right, 2, 0.3, 0.4, 0.6, 0.7, 0.457162800244987, 1, 76.10275268554688, 1.2166491001844406, 9.000000, 62.000000, 3.000000,3.000000,1.000000,6.000000,0.500000,1.000000
57, test, 5, no_probe, 19, 4, 3, 4, 3, 0.7, 0.6, left, 1, 0.3, 0.4, 0.6, 0.7, 0.34673980018123984, 0, , , 9.000000, 62.000000, 1.000000,2.000000,1.000000,6.000000,0.500000,1.000000
57, test, 5, probe, 20, 2, 1, 1, 2, 0.4, 0.3, right, 2, 0.3, 0.4, 0.6, 0.7, 0.3059139996767044, 0, 67.81857299804688, 1.0833084001205862, 9.000000, 62.000000, 2.000000,2.000000,1.000000,6.000000,0.500000,1.000000
57, test, 5, no_probe, 21, 3, 2, 3, 2, 0.6, 0.4, left, 1, 0.3, 0.4, 0.6, 0.7, 0.23890560027211905, 0, , , 9.000000, 62.000000, 1.000000,3.000000,1.000000,6.000000,0.500000,1.000000
57, test, 5, no_probe, 22, 3, 4, 4, 3, 0.6, 0.7, right, 2, 0.3, 0.4, 0.6, 0.7, 0.5183672001585364, 0, , , 9.000000, 62.000000, 2.000000,3.000000,1.000000,6.000000,0.500000,1.000000
57, test, 5, probe, 23, 2, 1, 2, 1, 0.4, 0.3, left, 1, 0.3, 0.4, 0.6, 0.7, 0.26698509976267815, 0, 67.1705322265625, 0.7166817001998425, 9.000000, 62.000000, 3.000000,3.000000,1.000000,6.000000,0.500000,1.000000
57, test, 5, no_probe, 24, 2, 4, 2, 4, 0.4, 0.7, left, 1, 0.3, 0.4, 0.6, 0.7, 0.2967809000983834, 1, , , 10.000000, 63.000000, 1.000000,3.000000,1.000000,6.000000,0.500000,1.000000
57, test, 5, no_probe, 25, 2, 1, 2, 1, 0.4, 0.3, left, 1, 0.3, 0.4, 0.6, 0.7, 0.4818326998502016, 0, , , 10.000000, 63.000000, 2.000000,3.000000,1.000000,6.000000,0.500000,1.000000
57, test, 6, no_probe, 1, 4, 2, 2, 4, 0.7, 0.4, right, 2, 0.3, 0.4, 0.6, 0.7, 0.16137059964239597, 1, , , 1.000000, 64.000000, 1.000000,2.000000,1.000000,6.000000,0.500000,1.000000
57, test, 6, probe, 2, 4, 2, 4, 2, 0.7, 0.4, left, 1, 0.3, 0.4, 0.6, 0.7, 0.3170324000529945, 1, 99.99978637695312, 1.749936900101602, 2.000000, 65.000000, 2.000000,2.000000,1.000000,6.000000,0.500000,1.000000
57, test, 6, no_probe, 3, 4, 1, 4, 1, 0.7, 0.3, left, 1, 0.3, 0.4, 0.6, 0.7, 0.43057520035654306, 1, , , 3.000000, 66.000000, 1.000000,2.000000,1.000000,6.000000,0.500000,1.000000
57, test, 6, probe, 4, 3, 1, 3, 1, 0.6, 0.3, left, 1, 0.3, 0.4, 0.6, 0.7, 1.0058305002748966, 0, 80.2547607421875, 1.249977800063789, 3.000000, 66.000000, 2.000000,2.000000,1.000000,6.000000,0.500000,1.000000
57, test, 6, no_probe, 5, 3, 2, 2, 3, 0.6, 0.4, right, 2, 0.3, 0.4, 0.6, 0.7, 1.8234402001835406, 1, , , 4.000000, 67.000000, 1.000000,3.000000,1.000000,6.000000,0.500000,1.000000
57, test, 6, no_probe, 6, 4, 1, 4, 1, 0.7, 0.3, left, 1, 0.3, 0.4, 0.6, 0.7, 1.7038949001580477, 1, , , 5.000000, 68.000000, 2.000000,3.000000,1.000000,6.000000,0.500000,1.000000
57, test, 6, probe, 7, 4, 3, 3, 4, 0.7, 0.6, right, 2, 0.3, 0.4, 0.6, 0.7, 0.5346624003723264, 1, 99.999755859375, 1.7666305997408926, 6.000000, 69.000000, 3.000000,3.000000,1.000000,6.000000,0.500000,1.000000
57, test, 6, no_probe, 8, 1, 4, 4, 1, 0.3, 0.7, right, 2, 0.3, 0.4, 0.6, 0.7, 0.5502313999459147, 0, , , 6.000000, 69.000000, 1.000000,3.000000,1.000000,6.000000,0.500000,1.000000
57, test, 6, no_probe, 9, 4, 3, 3, 4, 0.7, 0.6, right, 2, 0.3, 0.4, 0.6, 0.7, 0.7175162001512945, 1, , , 7.000000, 70.000000, 2.000000,3.000000,1.000000,6.000000,0.500000,1.000000
57, test, 6, probe, 10, 4, 1, 1, 4, 0.7, 0.3, right, 2, 0.3, 0.4, 0.6, 0.7, 0.5141255999915302, 1, 93.00186157226562, 1.4499876000918448, 8.000000, 71.000000, 3.000000,3.000000,1.000000,6.000000,0.500000,1.000000
57, test, 6, no_probe, 11, 3, 2, 3, 2, 0.6, 0.4, left, 1, 0.3, 0.4, 0.6, 0.7, 0.5915540996938944, 0, , , 8.000000, 71.000000, 1.000000,2.000000,1.000000,6.000000,0.500000,1.000000
57, test, 6, probe, 12, 2, 4, 2, 4, 0.4, 0.7, left, 1, 0.3, 0.4, 0.6, 0.7, 0.6344085996970534, 1, 99.99981689453125, 1.4333260003477335, 9.000000, 72.000000, 2.000000,2.000000,1.000000,6.000000,0.500000,1.000000
57, test, 6, no_probe, 13, 2, 3, 3, 2, 0.4, 0.6, right, 2, 0.3, 0.4, 0.6, 0.7, 0.48404989996924996, 1, , , 10.000000, 73.000000, 1.000000,2.000000,1.000000,6.000000,0.500000,1.000000
57, test, 6, probe, 14, 2, 3, 3, 2, 0.4, 0.6, right, 2, 0.3, 0.4, 0.6, 0.7, 0.480358200147748, 1, 99.99993896484375, 1.366619999986142, 11.000000, 74.000000, 2.000000,2.000000,1.000000,6.000000,0.500000,1.000000
57, test, 6, no_probe, 15, 1, 3, 3, 1, 0.3, 0.6, right, 2, 0.3, 0.4, 0.6, 0.7, 0.486640099901706, 0, , , 11.000000, 74.000000, 1.000000,2.000000,1.000000,6.000000,0.500000,1.000000
57, test, 6, probe, 16, 2, 1, 1, 2, 0.4, 0.3, right, 2, 0.3, 0.4, 0.6, 0.7, 0.8340193000622094, 1, 92.94061279296875, 1.3499940000474453, 12.000000, 75.000000, 2.000000,2.000000,1.000000,6.000000,0.500000,1.000000
57, test, 6, no_probe, 17, 4, 2, 2, 4, 0.7, 0.4, right, 2, 0.3, 0.4, 0.6, 0.7, 0.5186340999789536, 1, , , 13.000000, 76.000000, 1.000000,3.000000,1.000000,6.000000,0.500000,1.000000
57, test, 6, no_probe, 18, 4, 3, 3, 4, 0.7, 0.6, right, 2, 0.3, 0.4, 0.6, 0.7, 0.36318290000781417, 1, , , 14.000000, 77.000000, 2.000000,3.000000,1.000000,6.000000,0.500000,1.000000
57, test, 6, probe, 19, 4, 3, 4, 3, 0.7, 0.6, left, 1, 0.3, 0.4, 0.6, 0.7, 0.6092368001118302, 1, 99.999755859375, 1.899997000116855, 15.000000, 78.000000, 3.000000,3.000000,1.000000,6.000000,0.500000,1.000000
57, test, 6, no_probe, 20, 3, 1, 1, 3, 0.6, 0.3, right, 2, 0.3, 0.4, 0.6, 0.7, 0.6095678997226059, 1, , , 16.000000, 79.000000, 1.000000,2.000000,1.000000,6.000000,0.500000,1.000000
57, test, 6, probe, 21, 4, 2, 4, 2, 0.7, 0.4, left, 1, 0.3, 0.4, 0.6, 0.7, 0.6358914999291301, 1, 99.99981689453125, 3.133291299920529, 17.000000, 80.000000, 2.000000,2.000000,1.000000,6.000000,0.500000,1.000000
57, test, 6, no_probe, 22, 3, 1, 1, 3, 0.6, 0.3, right, 2, 0.3, 0.4, 0.6, 0.7, 0.5716423997655511, 1, , , 18.000000, 81.000000, 1.000000,2.000000,1.000000,6.000000,0.500000,1.000000
57, test, 6, probe, 23, 3, 1, 1, 3, 0.6, 0.3, right, 2, 0.3, 0.4, 0.6, 0.7, 0.518960400018841, 0, 90.04489135742188, 1.316617799922824, 18.000000, 81.000000, 2.000000,2.000000,1.000000,6.000000,0.500000,1.000000
57, test, 6, no_probe, 24, 3, 1, 1, 3, 0.6, 0.3, right, 2, 0.3, 0.4, 0.6, 0.7, 0.5175052001141012, 1, , , 19.000000, 82.000000, 1.000000,2.000000,1.000000,6.000000,0.500000,1.000000
57, test, 6, probe, 25, 3, 4, 4, 3, 0.6, 0.7, right, 2, 0.3, 0.4, 0.6, 0.7, 0.3939799997024238, 1, 99.99978637695312, 1.9332527997903526, 20.000000, 83.000000, 2.000000,2.000000,1.000000,6.000000,0.500000,1.000000
57, test, 7, no_probe, 1, 4, 2, 4, 2, 0.7, 0.4, left, 1, 0.3, 0.4, 0.6, 0.7, 0.24251529993489385, 1, , , 1.000000, 84.000000, 1.000000,2.000000,1.000000,6.000000,0.500000,1.000000
57, test, 7, probe, 2, 3, 1, 3, 1, 0.6, 0.3, left, 1, 0.3, 0.4, 0.6, 0.7, 0.990638299845159, 1, 99.99972534179688, 1.8333110003732145, 2.000000, 85.000000, 2.000000,2.000000,1.000000,6.000000,0.500000,1.000000
57, test, 7, no_probe, 3, 1, 3, 1, 3, 0.3, 0.6, left, 1, 0.3, 0.4, 0.6, 0.7, 0.6289857998490334, 0, , , 2.000000, 85.000000, 1.000000,3.000000,1.000000,6.000000,0.500000,1.000000
57, test, 7, no_probe, 4, 4, 1, 1, 4, 0.7, 0.3, right, 2, 0.3, 0.4, 0.6, 0.7, 0.537820499856025, 0, , , 2.000000, 85.000000, 2.000000,3.000000,1.000000,6.000000,0.500000,1.000000
57, test, 7, probe, 5, 2, 4, 4, 2, 0.4, 0.7, right, 2, 0.3, 0.4, 0.6, 0.7, 0.38636589981615543, 0, 26.231201171875, 0.883339200168848, 2.000000, 85.000000, 3.000000,3.000000,1.000000,6.000000,0.500000,1.000000
57, test, 7, no_probe, 6, 2, 1, 1, 2, 0.4, 0.3, right, 2, 0.3, 0.4, 0.6, 0.7, 0.5360896000638604, 0, , , 2.000000, 85.000000, 1.000000,2.000000,1.000000,6.000000,0.500000,1.000000
57, test, 7, probe, 7, 3, 2, 3, 2, 0.6, 0.4, left, 1, 0.3, 0.4, 0.6, 0.7, 0.5708870999515057, 0, 23.416748046875, 1.3500028001144528, 2.000000, 85.000000, 2.000000,2.000000,1.000000,6.000000,0.500000,1.000000
57, test, 7, no_probe, 8, 1, 2, 2, 1, 0.3, 0.4, right, 2, 0.3, 0.4, 0.6, 0.7, 0.5417733998037875, 1, , , 3.000000, 86.000000, 1.000000,2.000000,1.000000,6.000000,0.500000,1.000000
57, test, 7, probe, 9, 4, 2, 4, 2, 0.7, 0.4, left, 1, 0.3, 0.4, 0.6, 0.7, 0.5737827001139522, 1, 42.433685302734375, 1.9500204999931157, 4.000000, 87.000000, 2.000000,2.000000,1.000000,6.000000,0.500000,1.000000
57, test, 7, no_probe, 10, 4, 2, 2, 4, 0.7, 0.4, right, 2, 0.3, 0.4, 0.6, 0.7, 0.46127810003235936, 1, , , 5.000000, 88.000000, 1.000000,3.000000,1.000000,6.000000,0.500000,1.000000
57, test, 7, no_probe, 11, 4, 1, 4, 1, 0.7, 0.3, left, 1, 0.3, 0.4, 0.6, 0.7, 0.0020396998152136803, 1, , , 6.000000, 89.000000, 2.000000,3.000000,1.000000,6.000000,0.500000,1.000000
57, test, 7, probe, 12, 4, 2, 4, 2, 0.7, 0.4, left, 1, 0.3, 0.4, 0.6, 0.7, 0.3347114999778569, 1, 63.77294921875, 0.599972500000149, 7.000000, 90.000000, 3.000000,3.000000,1.000000,6.000000,0.500000,1.000000
57, test, 7, no_probe, 13, 4, 2, 4, 2, 0.7, 0.4, left, 1, 0.3, 0.4, 0.6, 0.7, 0.44014199962839484, 0, , , 7.000000, 90.000000, 1.000000,3.000000,1.000000,6.000000,0.500000,1.000000
57, test, 7, no_probe, 14, 1, 4, 4, 1, 0.3, 0.7, right, 2, 0.3, 0.4, 0.6, 0.7, 0.384012000169605, 0, , , 7.000000, 90.000000, 2.000000,3.000000,1.000000,6.000000,0.500000,1.000000
57, test, 7, probe, 15, 4, 2, 4, 2, 0.7, 0.4, left, 1, 0.3, 0.4, 0.6, 0.7, 0.355662299785763, 1, 60.229278564453125, 0.5333551000803709, 8.000000, 91.000000, 3.000000,3.000000,1.000000,6.000000,0.500000,1.000000
57, test, 7, no_probe, 16, 3, 4, 4, 3, 0.6, 0.7, right, 2, 0.3, 0.4, 0.6, 0.7, 0.20393670024350286, 0, , , 8.000000, 91.000000, 1.000000,2.000000,1.000000,6.000000,0.500000,1.000000
57, test, 7, probe, 17, 4, 1, 1, 4, 0.7, 0.3, right, 2, 0.3, 0.4, 0.6, 0.7, 0.38486510002985597, 1, 64.04214477539062, 1.066692799795419, 9.000000, 92.000000, 2.000000,2.000000,1.000000,6.000000,0.500000,1.000000
57, test, 7, no_probe, 18, 1, 3, 3, 1, 0.3, 0.6, right, 2, 0.3, 0.4, 0.6, 0.7, 0.4222734998911619, 1, , , 10.000000, 93.000000, 1.000000,3.000000,1.000000,6.000000,0.500000,1.000000
57, test, 7, no_probe, 19, 1, 3, 3, 1, 0.3, 0.6, right, 2, 0.3, 0.4, 0.6, 0.7, 0.531578800175339, 1, , , 11.000000, 94.000000, 2.000000,3.000000,1.000000,6.000000,0.500000,1.000000
57, test, 7, probe, 20, 3, 4, 3, 4, 0.6, 0.7, left, 1, 0.3, 0.4, 0.6, 0.7, 0.843246900010854, 0, 74.65869140625, 1.4166231001727283, 11.000000, 94.000000, 3.000000,3.000000,1.000000,6.000000,0.500000,1.000000
57, test, 7, no_probe, 21, 4, 3, 3, 4, 0.7, 0.6, right, 2, 0.3, 0.4, 0.6, 0.7, 1.95427200011909, 1, , , 12.000000, 95.000000, 1.000000,2.000000,1.000000,6.000000,0.500000,1.000000
57, test, 7, probe, 22, 1, 3, 1, 3, 0.3, 0.6, left, 1, 0.3, 0.4, 0.6, 0.7, 0.2819360997527838, 0, 69.97137451171875, 1.1333829001523554, 12.000000, 95.000000, 2.000000,2.000000,1.000000,6.000000,0.500000,1.000000
57, test, 7, no_probe, 23, 3, 4, 4, 3, 0.6, 0.7, right, 2, 0.3, 0.4, 0.6, 0.7, 0.26136260014027357, 1, , , 13.000000, 96.000000, 1.000000,3.000000,1.000000,6.000000,0.500000,1.000000
57, test, 7, no_probe, 24, 1, 2, 2, 1, 0.3, 0.4, right, 2, 0.3, 0.4, 0.6, 0.7, 0.43505970016121864, 1, , , 14.000000, 97.000000, 2.000000,3.000000,1.000000,6.000000,0.500000,1.000000
57, test, 7, probe, 25, 1, 3, 3, 1, 0.3, 0.6, right, 2, 0.3, 0.4, 0.6, 0.7, 0.287805600091815, 0, 65.45480346679688, 0.9499953999184072, 14.000000, 97.000000, 3.000000,3.000000,1.000000,6.000000,0.500000,1.000000
57, test, 8, no_probe, 1, 1, 3, 3, 1, 0.3, 0.6, right, 2, 0.3, 0.4, 0.6, 0.7, 0.33577900007367134, 0, , , 0.000000, 97.000000, 1.000000,3.000000,1.000000,6.000000,0.500000,1.000000
57, test, 8, no_probe, 2, 4, 2, 4, 2, 0.7, 0.4, left, 1, 0.3, 0.4, 0.6, 0.7, 0.6556989001110196, 1, , , 1.000000, 98.000000, 2.000000,3.000000,1.000000,6.000000,0.500000,1.000000
57, test, 8, probe, 3, 4, 1, 4, 1, 0.7, 0.3, left, 1, 0.3, 0.4, 0.6, 0.7, 0.48279039980843663, 1, 79.83145141601562, 1.1329343998804688, 2.000000, 99.000000, 3.000000,3.000000,1.000000,6.000000,0.500000,1.000000
57, test, 8, no_probe, 4, 3, 2, 2, 3, 0.6, 0.4, right, 2, 0.3, 0.4, 0.6, 0.7, 0.17882140027359128, 1, , , 3.000000, 100.000000, 1.000000,2.000000,1.000000,6.000000,0.500000,1.000000
57, test, 8, probe, 5, 1, 2, 1, 2, 0.3, 0.4, left, 1, 0.3, 0.4, 0.6, 0.7, 0.2090527997352183, 0, 77.38238525390625, 1.3833293998613954, 3.000000, 100.000000, 2.000000,2.000000,1.000000,6.000000,0.500000,1.000000
57, test, 8, no_probe, 6, 3, 1, 1, 3, 0.6, 0.3, right, 2, 0.3, 0.4, 0.6, 0.7, 0.45617369981482625, 0, , , 3.000000, 100.000000, 1.000000,2.000000,1.000000,6.000000,0.500000,1.000000
57, test, 8, probe, 7, 2, 4, 2, 4, 0.4, 0.7, left, 1, 0.3, 0.4, 0.6, 0.7, 0.23664529994130135, 0, 29.321502685546875, 1.5833038999699056, 3.000000, 100.000000, 2.000000,2.000000,1.000000,6.000000,0.500000,1.000000
57, test, 8, no_probe, 8, 1, 4, 4, 1, 0.3, 0.7, right, 2, 0.3, 0.4, 0.6, 0.7, 0.49179620016366243, 0, , , 3.000000, 100.000000, 1.000000,3.000000,1.000000,6.000000,0.500000,1.000000
57, test, 8, no_probe, 9, 4, 1, 1, 4, 0.7, 0.3, right, 2, 0.3, 0.4, 0.6, 0.7, 0.5493284999392927, 1, , , 4.000000, 101.000000, 2.000000,3.000000,1.000000,6.000000,0.500000,1.000000
57, test, 8, probe, 10, 4, 3, 3, 4, 0.7, 0.6, right, 2, 0.3, 0.4, 0.6, 0.7, 0.3815914997830987, 0, 40.251739501953125, 0.6833611000329256, 4.000000, 101.000000, 3.000000,3.000000,1.000000,6.000000,0.500000,1.000000
57, test, 8, no_probe, 11, 4, 2, 2, 4, 0.7, 0.4, right, 2, 0.3, 0.4, 0.6, 0.7, 0.5426897997967899, 1, , , 5.000000, 102.000000, 1.000000,3.000000,1.000000,6.000000,0.500000,1.000000
57, test, 8, no_probe, 12, 4, 3, 3, 4, 0.7, 0.6, right, 2, 0.3, 0.4, 0.6, 0.7, 0.4508034000173211, 0, , , 5.000000, 102.000000, 2.000000,3.000000,1.000000,6.000000,0.500000,1.000000
57, test, 8, probe, 13, 4, 1, 1, 4, 0.7, 0.3, right, 2, 0.3, 0.4, 0.6, 0.7, 0.4342998997308314, 1, 71.49432373046875, 1.0333509002812207, 6.000000, 103.000000, 3.000000,3.000000,1.000000,6.000000,0.500000,1.000000
57, test, 8, no_probe, 14, 1, 4, 4, 1, 0.3, 0.7, right, 2, 0.3, 0.4, 0.6, 0.7, 0.6191166001372039, 1, , , 7.000000, 104.000000, 1.000000,3.000000,1.000000,6.000000,0.500000,1.000000
57, test, 8, no_probe, 15, 4, 3, 3, 4, 0.7, 0.6, right, 2, 0.3, 0.4, 0.6, 0.7, 0.4648400000296533, 1, , , 8.000000, 105.000000, 2.000000,3.000000,1.000000,6.000000,0.500000,1.000000
57, test, 8, probe, 16, 3, 2, 2, 3, 0.6, 0.4, right, 2, 0.3, 0.4, 0.6, 0.7, 0.46610540011897683, 1, 75.13766479492188, 1.2167005999945104, 9.000000, 106.000000, 3.000000,3.000000,1.000000,6.000000,0.500000,1.000000
57, test, 8, no_probe, 17, 1, 4, 1, 4, 0.3, 0.7, left, 1, 0.3, 0.4, 0.6, 0.7, 0.22794099990278482, 0, , , 9.000000, 106.000000, 1.000000,2.000000,1.000000,6.000000,0.500000,1.000000
57, test, 8, probe, 18, 4, 2, 4, 2, 0.7, 0.4, left, 1, 0.3, 0.4, 0.6, 0.7, 0.3475666996091604, 1, 78.98870849609375, 1.0666320002637804, 10.000000, 107.000000, 2.000000,2.000000,1.000000,6.000000,0.500000,1.000000
57, test, 8, no_probe, 19, 1, 3, 3, 1, 0.3, 0.6, right, 2, 0.3, 0.4, 0.6, 0.7, 0.4061075998470187, 0, , , 10.000000, 107.000000, 1.000000,3.000000,1.000000,6.000000,0.500000,1.000000
57, test, 8, no_probe, 20, 3, 1, 1, 3, 0.6, 0.3, right, 2, 0.3, 0.4, 0.6, 0.7, 0.44436929980292916, 1, , , 11.000000, 108.000000, 2.000000,3.000000,1.000000,6.000000,0.500000,1.000000
57, test, 8, probe, 21, 3, 1, 1, 3, 0.6, 0.3, right, 2, 0.3, 0.4, 0.6, 0.7, 0.46077550016343594, 1, 97.74514770507812, 1.1333859004080296, 12.000000, 109.000000, 3.000000,3.000000,1.000000,6.000000,0.500000,1.000000
57, test, 8, no_probe, 22, 1, 4, 4, 1, 0.3, 0.7, right, 2, 0.3, 0.4, 0.6, 0.7, 0.24097570031881332, 0, , , 12.000000, 109.000000, 1.000000,3.000000,1.000000,6.000000,0.500000,1.000000
57, test, 8, no_probe, 23, 4, 2, 2, 4, 0.7, 0.4, right, 2, 0.3, 0.4, 0.6, 0.7, 0.5326703996397555, 1, , , 13.000000, 110.000000, 2.000000,3.000000,1.000000,6.000000,0.500000,1.000000
57, test, 8, probe, 24, 4, 1, 4, 1, 0.7, 0.3, left, 1, 0.3, 0.4, 0.6, 0.7, 0.5291789001785219, 1, 81.88497924804688, 0.9666634001769125, 14.000000, 111.000000, 3.000000,3.000000,1.000000,6.000000,0.500000,1.000000
57, test, 8, no_probe, 25, 2, 1, 1, 2, 0.4, 0.3, right, 2, 0.3, 0.4, 0.6, 0.7, 0.6402394003234804, 1, , , 15.000000, 112.000000, 1.000000,2.000000,1.000000,6.000000,0.500000,1.000000
