subject, block_type, block, thought probe, trial, chosen, unchosen, offer_left_image, offer_right_image, exp_value_chosen, exp_value_unchosen, choice_location, choice_key, exp_value1, exp_value2, exp_value3, exp_value4, RT, reward, vas, RT_vas, coins_per_block, coins_per_task, count_to_prob, ntrial_to_prob, ITI_duration,RT_deadline,choice_feedback_duration,outcome_duration
13, test, 1, abort_trial, 1
13, test, 1, no_probe, 2, 2, 3, 3, 2, 0.4, 0.6, right, 2, 0.3, 0.4, 0.6, 0.7, 0.938007100019604, 0, , , 0.000000, 0.000000, 1.000000,2.000000,1.000000,6.000000,0.500000,1.000000
13, test, 1, probe, 3, 3, 2, 3, 2, 0.6, 0.4, left, 1, 0.3, 0.4, 0.6, 0.7, 1.1530368002131581, 1, 99.99423217773438, 8.883234400302172, 1.000000, 1.000000, 2.000000,2.000000,1.000000,6.000000,0.500000,1.000000
13, test, 1, no_probe, 4, 3, 2, 2, 3, 0.6, 0.4, right, 2, 0.3, 0.4, 0.6, 0.7, 1.3684097002260387, 0, , , 1.000000, 1.000000, 1.000000,2.000000,1.000000,6.000000,0.500000,1.000000
13, test, 1, probe, 5, 2, 1, 2, 1, 0.4, 0.3, left, 1, 0.3, 0.4, 0.6, 0.7, 2.727502199821174, 0, 98.250244140625, 3.6165922000072896, 1.000000, 1.000000, 2.000000,2.000000,1.000000,6.000000,0.500000,1.000000
13, test, 1, no_probe, 6, 1, 4, 4, 1, 0.3, 0.7, right, 2, 0.3, 0.4, 0.6, 0.7, 2.5624155001714826, 1, , , 2.000000, 2.000000, 1.000000,2.000000,1.000000,6.000000,0.500000,1.000000
13, test, 1, no_probe, 1, 3, 4, 4, 3, 0.6, 0.7, right, 2, 0.3, 0.4, 0.6, 0.7, 1.0265424000099301, 1, , , 1.000000, 3.000000, 1.000000,3.000000,1.000000,6.000000,0.500000,1.000000
13, test, 1, no_probe, 2, 1, 2, 1, 2, 0.3, 0.4, left, 1, 0.3, 0.4, 0.6, 0.7, 1.8959970995783806, 0, , , 1.000000, 3.000000, 2.000000,3.000000,1.000000,6.000000,0.500000,1.000000
13, test, 1, probe, 3, 4, 1, 1, 4, 0.7, 0.3, right, 2, 0.3, 0.4, 0.6, 0.7, 1.9848314998671412, 1, 99.99783325195312, 4.1329074003733695, 2.000000, 4.000000, 3.000000,3.000000,1.000000,6.000000,0.500000,1.000000
13, test, 1, no_probe, 4, 1, 3, 3, 1, 0.3, 0.6, right, 2, 0.3, 0.4, 0.6, 0.7, 1.3161714999005198, 0, , , 2.000000, 4.000000, 1.000000,3.000000,1.000000,6.000000,0.500000,1.000000
13, test, 1, no_probe, 5, 2, 4, 4, 2, 0.4, 0.7, right, 2, 0.3, 0.4, 0.6, 0.7, 1.840591600164771, 0, , , 2.000000, 4.000000, 2.000000,3.000000,1.000000,6.000000,0.500000,1.000000
13, test, 1, probe, 6, 1, 4, 4, 1, 0.3, 0.7, right, 2, 0.3, 0.4, 0.6, 0.7, 1.5098346997983754, 1, 99.99954223632812, 2.233248900156468, 3.000000, 5.000000, 3.000000,3.000000,1.000000,6.000000,0.500000,1.000000
13, test, 1, no_probe, 7, 1, 2, 2, 1, 0.3, 0.4, right, 2, 0.3, 0.4, 0.6, 0.7, 1.5635644001886249, 0, , , 3.000000, 5.000000, 1.000000,2.000000,1.000000,6.000000,0.500000,1.000000
13, test, 1, probe, 8, 3, 4, 3, 4, 0.6, 0.7, left, 1, 0.3, 0.4, 0.6, 0.7, 2.310946499928832, 1, 95.30245971679688, 2.816679900046438, 4.000000, 6.000000, 2.000000,2.000000,1.000000,6.000000,0.500000,1.000000
13, test, 1, no_probe, 9, 1, 2, 2, 1, 0.3, 0.4, right, 2, 0.3, 0.4, 0.6, 0.7, 1.2853852999396622, 0, , , 4.000000, 6.000000, 1.000000,3.000000,1.000000,6.000000,0.500000,1.000000
13, test, 1, no_probe, 10, 1, 4, 1, 4, 0.3, 0.7, left, 1, 0.3, 0.4, 0.6, 0.7, 1.276075300294906, 0, , , 4.000000, 6.000000, 2.000000,3.000000,1.000000,6.000000,0.500000,1.000000
13, test, 1, probe, 11, 3, 1, 1, 3, 0.6, 0.3, right, 2, 0.3, 0.4, 0.6, 0.7, 1.6260729003697634, 1, 99.7220458984375, 3.699922100175172, 5.000000, 7.000000, 3.000000,3.000000,1.000000,6.000000,0.500000,1.000000
13, test, 1, no_probe, 12, 1, 2, 2, 1, 0.3, 0.4, right, 2, 0.3, 0.4, 0.6, 0.7, 1.1929951002821326, 0, , , 5.000000, 7.000000, 1.000000,3.000000,1.000000,6.000000,0.500000,1.000000
13, test, 1, no_probe, 13, 3, 2, 2, 3, 0.6, 0.4, right, 2, 0.3, 0.4, 0.6, 0.7, 2.994738900102675, 0, , , 5.000000, 7.000000, 2.000000,3.000000,1.000000,6.000000,0.500000,1.000000
13, test, 1, probe, 14, 2, 1, 1, 2, 0.4, 0.3, right, 2, 0.3, 0.4, 0.6, 0.7, 2.2923225001432, 0, 99.99954223632812, 2.5166421998292208, 5.000000, 7.000000, 3.000000,3.000000,1.000000,6.000000,0.500000,1.000000
13, test, 1, no_probe, 15, 1, 2, 1, 2, 0.3, 0.4, left, 1, 0.3, 0.4, 0.6, 0.7, 1.0581009001471102, 0, , , 5.000000, 7.000000, 1.000000,3.000000,1.000000,6.000000,0.500000,1.000000
13, test, 1, no_probe, 16, 4, 1, 1, 4, 0.7, 0.3, right, 2, 0.3, 0.4, 0.6, 0.7, 1.2570890998467803, 1, , , 6.000000, 8.000000, 2.000000,3.000000,1.000000,6.000000,0.500000,1.000000
13, test, 1, probe, 17, 2, 3, 2, 3, 0.4, 0.6, left, 1, 0.3, 0.4, 0.6, 0.7, 2.048076099716127, 0, 94.97802734375, 1.8833074001595378, 6.000000, 8.000000, 3.000000,3.000000,1.000000,6.000000,0.500000,1.000000
13, test, 1, no_probe, 18, 3, 2, 2, 3, 0.6, 0.4, right, 2, 0.3, 0.4, 0.6, 0.7, 0.8620847999118268, 1, , , 7.000000, 9.000000, 1.000000,3.000000,1.000000,6.000000,0.500000,1.000000
13, test, 1, no_probe, 19, 4, 1, 4, 1, 0.7, 0.3, left, 1, 0.3, 0.4, 0.6, 0.7, 1.0096058999188244, 1, , , 8.000000, 10.000000, 2.000000,3.000000,1.000000,6.000000,0.500000,1.000000
13, test, 1, probe, 20, 2, 4, 2, 4, 0.4, 0.7, left, 1, 0.3, 0.4, 0.6, 0.7, 1.7585492003709078, 1, 99.99957275390625, 2.3332984000444412, 9.000000, 11.000000, 3.000000,3.000000,1.000000,6.000000,0.500000,1.000000
13, test, 1, no_probe, 21, 4, 1, 4, 1, 0.7, 0.3, left, 1, 0.3, 0.4, 0.6, 0.7, 1.428258000407368, 1, , , 10.000000, 12.000000, 1.000000,3.000000,1.000000,6.000000,0.500000,1.000000
13, test, 1, no_probe, 22, 2, 4, 4, 2, 0.4, 0.7, right, 2, 0.3, 0.4, 0.6, 0.7, 1.4025820000097156, 1, , , 11.000000, 13.000000, 2.000000,3.000000,1.000000,6.000000,0.500000,1.000000
13, test, 1, probe, 23, 3, 4, 3, 4, 0.6, 0.7, left, 1, 0.3, 0.4, 0.6, 0.7, 1.0688637997955084, 0, 91.337158203125, 3.6999873002059758, 11.000000, 13.000000, 3.000000,3.000000,1.000000,6.000000,0.500000,1.000000
13, test, 1, no_probe, 24, 4, 1, 1, 4, 0.7, 0.3, right, 2, 0.3, 0.4, 0.6, 0.7, 0.886081799864769, 0, , , 11.000000, 13.000000, 1.000000,2.000000,1.000000,6.000000,0.500000,1.000000
13, test, 1, probe, 25, 3, 2, 3, 2, 0.6, 0.4, left, 1, 0.3, 0.4, 0.6, 0.7, 2.0089511000551283, 1, 99.99945068359375, 2.2166367997415364, 12.000000, 14.000000, 2.000000,2.000000,1.000000,6.000000,0.500000,1.000000
13, test, 2, no_probe, 1, 3, 4, 4, 3, 0.6, 0.7, right, 2, 0.3, 0.4, 0.6, 0.7, 1.0088173002004623, 0, , , 0.000000, 14.000000, 1.000000,3.000000,1.000000,6.000000,0.500000,1.000000
13, test, 2, no_probe, 2, 3, 2, 2, 3, 0.6, 0.4, right, 2, 0.3, 0.4, 0.6, 0.7, 1.1648838999681175, 1, , , 1.000000, 15.000000, 2.000000,3.000000,1.000000,6.000000,0.500000,1.000000
13, test, 2, probe, 3, 1, 3, 1, 3, 0.3, 0.6, left, 1, 0.3, 0.4, 0.6, 0.7, 1.9352913997136056, 1, 92.82391357421875, 5.582871399819851, 2.000000, 16.000000, 3.000000,3.000000,1.000000,6.000000,0.500000,1.000000
13, test, 2, no_probe, 4, 1, 3, 3, 1, 0.3, 0.6, right, 2, 0.3, 0.4, 0.6, 0.7, 1.5395125998184085, 0, , , 2.000000, 16.000000, 1.000000,2.000000,1.000000,6.000000,0.500000,1.000000
13, test, 2, probe, 5, 3, 1, 3, 1, 0.6, 0.3, left, 1, 0.3, 0.4, 0.6, 0.7, 1.4954285002313554, 1, 97.81716918945312, 2.333276899997145, 3.000000, 17.000000, 2.000000,2.000000,1.000000,6.000000,0.500000,1.000000
13, test, 2, no_probe, 6, 4, 3, 3, 4, 0.7, 0.6, right, 2, 0.3, 0.4, 0.6, 0.7, 1.1734135998412967, 1, , , 4.000000, 18.000000, 1.000000,2.000000,1.000000,6.000000,0.500000,1.000000
13, test, 2, probe, 7, 3, 1, 3, 1, 0.6, 0.3, left, 1, 0.3, 0.4, 0.6, 0.7, 2.037232999689877, 0, 91.48675537109375, 1.8999697002582252, 4.000000, 18.000000, 2.000000,2.000000,1.000000,6.000000,0.500000,1.000000
13, test, 2, no_probe, 8, 4, 1, 4, 1, 0.7, 0.3, left, 1, 0.3, 0.4, 0.6, 0.7, 1.683972999919206, 1, , , 5.000000, 19.000000, 1.000000,2.000000,1.000000,6.000000,0.500000,1.000000
13, test, 2, probe, 9, 1, 2, 1, 2, 0.3, 0.4, left, 1, 0.3, 0.4, 0.6, 0.7, 2.5815809001214802, 0, 95.42864990234375, 4.183308099862188, 5.000000, 19.000000, 2.000000,2.000000,1.000000,6.000000,0.500000,1.000000
13, test, 2, no_probe, 10, 2, 3, 3, 2, 0.4, 0.6, right, 2, 0.3, 0.4, 0.6, 0.7, 1.9039971004240215, 0, , , 5.000000, 19.000000, 1.000000,3.000000,1.000000,6.000000,0.500000,1.000000
13, test, 2, no_probe, 11, 4, 1, 1, 4, 0.7, 0.3, right, 2, 0.3, 0.4, 0.6, 0.7, 1.3407366001047194, 0, , , 5.000000, 19.000000, 2.000000,3.000000,1.000000,6.000000,0.500000,1.000000
13, test, 2, probe, 12, 4, 1, 4, 1, 0.7, 0.3, left, 1, 0.3, 0.4, 0.6, 0.7, 2.1687445002608, 1, 87.90823364257812, 2.533307499717921, 6.000000, 20.000000, 3.000000,3.000000,1.000000,6.000000,0.500000,1.000000
13, test, 2, no_probe, 13, 3, 2, 2, 3, 0.6, 0.4, right, 2, 0.3, 0.4, 0.6, 0.7, 1.4810587000101805, 0, , , 6.000000, 20.000000, 1.000000,3.000000,1.000000,6.000000,0.500000,1.000000
13, test, 2, no_probe, 14, 4, 1, 1, 4, 0.7, 0.3, right, 2, 0.3, 0.4, 0.6, 0.7, 1.3702131998725235, 1, , , 7.000000, 21.000000, 2.000000,3.000000,1.000000,6.000000,0.500000,1.000000
13, test, 2, probe, 15, 1, 4, 1, 4, 0.3, 0.7, left, 1, 0.3, 0.4, 0.6, 0.7, 1.2219743998721242, 0, 95.664306640625, 3.9666229002177715, 7.000000, 21.000000, 3.000000,3.000000,1.000000,6.000000,0.500000,1.000000
13, test, 2, no_probe, 16, 3, 4, 4, 3, 0.6, 0.7, right, 2, 0.3, 0.4, 0.6, 0.7, 1.1533892997540534, 1, , , 8.000000, 22.000000, 1.000000,2.000000,1.000000,6.000000,0.500000,1.000000
13, test, 2, probe, 17, 4, 1, 1, 4, 0.7, 0.3, right, 2, 0.3, 0.4, 0.6, 0.7, 2.9976307000033557, 1, 89.87033081054688, 4.833273599855602, 9.000000, 23.000000, 2.000000,2.000000,1.000000,6.000000,0.500000,1.000000
13, test, 2, no_probe, 18, 4, 3, 4, 3, 0.7, 0.6, left, 1, 0.3, 0.4, 0.6, 0.7, 3.031699300277978, 1, , , 10.000000, 24.000000, 1.000000,3.000000,1.000000,6.000000,0.500000,1.000000
13, test, 2, no_probe, 19, 1, 2, 2, 1, 0.3, 0.4, right, 2, 0.3, 0.4, 0.6, 0.7, 1.3798726997338235, 0, , , 10.000000, 24.000000, 2.000000,3.000000,1.000000,6.000000,0.500000,1.000000
13, test, 2, probe, 20, 4, 3, 3, 4, 0.7, 0.6, right, 2, 0.3, 0.4, 0.6, 0.7, 1.22694110032171, 0, 89.43438720703125, 5.283280900213867, 10.000000, 24.000000, 3.000000,3.000000,1.000000,6.000000,0.500000,1.000000
13, test, 2, no_probe, 21, 1, 3, 3, 1, 0.3, 0.6, right, 2, 0.3, 0.4, 0.6, 0.7, 1.6948982002213597, 0, , , 10.000000, 24.000000, 1.000000,3.000000,1.000000,6.000000,0.500000,1.000000
13, test, 2, no_probe, 22, 4, 1, 1, 4, 0.7, 0.3, right, 2, 0.3, 0.4, 0.6, 0.7, 1.263736399821937, 1, , , 11.000000, 25.000000, 2.000000,3.000000,1.000000,6.000000,0.500000,1.000000
13, test, 2, probe, 23, 3, 1, 3, 1, 0.6, 0.3, left, 1, 0.3, 0.4, 0.6, 0.7, 1.5116949998773634, 1, 83.52880859375, 2.099922399967909, 12.000000, 26.000000, 3.000000,3.000000,1.000000,6.000000,0.500000,1.000000
13, test, 2, no_probe, 24, 4, 3, 4, 3, 0.7, 0.6, left, 1, 0.3, 0.4, 0.6, 0.7, 1.7663630000315607, 0, , , 12.000000, 26.000000, 1.000000,2.000000,1.000000,6.000000,0.500000,1.000000
13, test, 2, probe, 25, 2, 4, 2, 4, 0.4, 0.7, left, 1, 0.3, 0.4, 0.6, 0.7, 0.9478547000326216, 0, 82.4013671875, 2.9499554000794888, 12.000000, 26.000000, 2.000000,2.000000,1.000000,6.000000,0.500000,1.000000
13, test, 3, no_probe, 1, 2, 1, 1, 2, 0.4, 0.3, right, 2, 0.3, 0.4, 0.6, 0.7, 0.9331062999553978, 1, , , 1.000000, 27.000000, 1.000000,3.000000,1.000000,6.000000,0.500000,1.000000
13, test, 3, no_probe, 2, 3, 4, 3, 4, 0.6, 0.7, left, 1, 0.3, 0.4, 0.6, 0.7, 1.4784397999756038, 1, , , 2.000000, 28.000000, 2.000000,3.000000,1.000000,6.000000,0.500000,1.000000
13, test, 3, probe, 3, 2, 4, 4, 2, 0.4, 0.7, right, 2, 0.3, 0.4, 0.6, 0.7, 2.665046100039035, 1, 93.84255981445312, 5.332888500299305, 3.000000, 29.000000, 3.000000,3.000000,1.000000,6.000000,0.500000,1.000000
13, test, 3, no_probe, 4, 3, 4, 3, 4, 0.6, 0.7, left, 1, 0.3, 0.4, 0.6, 0.7, 3.6841792999766767, 0, , , 3.000000, 29.000000, 1.000000,2.000000,1.000000,6.000000,0.500000,1.000000
13, test, 3, probe, 5, 2, 4, 2, 4, 0.4, 0.7, left, 1, 0.3, 0.4, 0.6, 0.7, 1.2309631002135575, 0, 91.46084594726562, 3.3166269999928772, 3.000000, 29.000000, 2.000000,2.000000,1.000000,6.000000,0.500000,1.000000
13, test, 3, no_probe, 6, 4, 3, 3, 4, 0.7, 0.6, right, 2, 0.3, 0.4, 0.6, 0.7, 1.2289394000545144, 1, , , 4.000000, 30.000000, 1.000000,2.000000,1.000000,6.000000,0.500000,1.000000
13, test, 3, probe, 7, 2, 1, 2, 1, 0.4, 0.3, left, 1, 0.3, 0.4, 0.6, 0.7, 1.5601375000551343, 1, 83.51397705078125, 2.166635900270194, 5.000000, 31.000000, 2.000000,2.000000,1.000000,6.000000,0.500000,1.000000
13, test, 3, no_probe, 8, 4, 3, 3, 4, 0.7, 0.6, right, 2, 0.3, 0.4, 0.6, 0.7, 0.9891460002399981, 0, , , 5.000000, 31.000000, 1.000000,3.000000,1.000000,6.000000,0.500000,1.000000
13, test, 3, no_probe, 9, 4, 2, 2, 4, 0.7, 0.4, right, 2, 0.3, 0.4, 0.6, 0.7, 1.5545915998518467, 0, , , 5.000000, 31.000000, 2.000000,3.000000,1.000000,6.000000,0.500000,1.000000
13, test, 3, probe, 10, 2, 1, 2, 1, 0.4, 0.3, left, 1, 0.3, 0.4, 0.6, 0.7, 1.4022499001584947, 0, 88.16314697265625, 4.7332792999222875, 5.000000, 31.000000, 3.000000,3.000000,1.000000,6.000000,0.500000,1.000000
13, test, 3, no_probe, 11, 1, 4, 1, 4, 0.3, 0.7, left, 1, 0.3, 0.4, 0.6, 0.7, 1.6960106999613345, 0, , , 5.000000, 31.000000, 1.000000,2.000000,1.000000,6.000000,0.500000,1.000000
13, test, 3, probe, 12, 4, 3, 4, 3, 0.7, 0.6, left, 1, 0.3, 0.4, 0.6, 0.7, 1.2413323000073433, 1, 83.53030395507812, 1.766645799856633, 6.000000, 32.000000, 2.000000,2.000000,1.000000,6.000000,0.500000,1.000000
13, test, 3, no_probe, 13, 2, 3, 3, 2, 0.4, 0.6, right, 2, 0.3, 0.4, 0.6, 0.7, 1.746609399560839, 1, , , 7.000000, 33.000000, 1.000000,3.000000,1.000000,6.000000,0.500000,1.000000
13, test, 3, no_probe, 14, 2, 1, 1, 2, 0.4, 0.3, right, 2, 0.3, 0.4, 0.6, 0.7, 0.8892486998811364, 1, , , 8.000000, 34.000000, 2.000000,3.000000,1.000000,6.000000,0.500000,1.000000
13, test, 3, probe, 15, 4, 3, 3, 4, 0.7, 0.6, right, 2, 0.3, 0.4, 0.6, 0.7, 2.219258100260049, 1, 89.08563232421875, 2.233290100004524, 9.000000, 35.000000, 3.000000,3.000000,1.000000,6.000000,0.500000,1.000000
13, test, 3, no_probe, 16, 4, 1, 4, 1, 0.7, 0.3, left, 1, 0.3, 0.4, 0.6, 0.7, 1.4420435000211, 1, , , 10.000000, 36.000000, 1.000000,3.000000,1.000000,6.000000,0.500000,1.000000
13, test, 3, no_probe, 17, 2, 1, 2, 1, 0.4, 0.3, left, 1, 0.3, 0.4, 0.6, 0.7, 0.7980265999212861, 0, , , 10.000000, 36.000000, 2.000000,3.000000,1.000000,6.000000,0.500000,1.000000
13, test, 3, probe, 18, 1, 3, 1, 3, 0.3, 0.6, left, 1, 0.3, 0.4, 0.6, 0.7, 2.767423499841243, 1, 84.07595825195312, 1.9832613002508879, 11.000000, 37.000000, 3.000000,3.000000,1.000000,6.000000,0.500000,1.000000
13, test, 3, no_probe, 19, 4, 2, 2, 4, 0.7, 0.4, right, 2, 0.3, 0.4, 0.6, 0.7, 1.6727658999152482, 1, , , 12.000000, 38.000000, 1.000000,2.000000,1.000000,6.000000,0.500000,1.000000
13, test, 3, probe, 20, 1, 2, 1, 2, 0.3, 0.4, left, 1, 0.3, 0.4, 0.6, 0.7, 0.9108998002484441, 0, 84.53781127929688, 5.4499364998191595, 12.000000, 38.000000, 2.000000,2.000000,1.000000,6.000000,0.500000,1.000000
13, test, 3, no_probe, 21, 2, 3, 3, 2, 0.4, 0.6, right, 2, 0.3, 0.4, 0.6, 0.7, 1.1299915998242795, 0, , , 12.000000, 38.000000, 1.000000,2.000000,1.000000,6.000000,0.500000,1.000000
13, test, 3, probe, 22, 4, 2, 4, 2, 0.7, 0.4, left, 1, 0.3, 0.4, 0.6, 0.7, 0.9291632999666035, 1, 85.8990478515625, 1.5832872996106744, 13.000000, 39.000000, 2.000000,2.000000,1.000000,6.000000,0.500000,1.000000
13, test, 3, no_probe, 23, 3, 2, 2, 3, 0.6, 0.4, right, 2, 0.3, 0.4, 0.6, 0.7, 0.6533681000582874, 0, , , 13.000000, 39.000000, 1.000000,2.000000,1.000000,6.000000,0.500000,1.000000
13, test, 3, probe, 24, 1, 3, 3, 1, 0.3, 0.6, right, 2, 0.3, 0.4, 0.6, 0.7, 2.0561007000505924, 0, 87.52523803710938, 2.183310799766332, 13.000000, 39.000000, 2.000000,2.000000,1.000000,6.000000,0.500000,1.000000
13, test, 3, no_probe, 25, 1, 2, 1, 2, 0.3, 0.4, left, 1, 0.3, 0.4, 0.6, 0.7, 0.7746573998592794, 1, , , 14.000000, 40.000000, 1.000000,3.000000,1.000000,6.000000,0.500000,1.000000
13, test, 4, no_probe, 1, 3, 4, 4, 3, 0.6, 0.7, right, 2, 0.3, 0.4, 0.6, 0.7, 0.8722304999828339, 1, , , 1.000000, 41.000000, 1.000000,3.000000,1.000000,6.000000,0.500000,1.000000
13, test, 4, no_probe, 2, 1, 2, 2, 1, 0.3, 0.4, right, 2, 0.3, 0.4, 0.6, 0.7, 0.9162567998282611, 0, , , 1.000000, 41.000000, 2.000000,3.000000,1.000000,6.000000,0.500000,1.000000
13, test, 4, probe, 3, 4, 2, 4, 2, 0.7, 0.4, left, 1, 0.3, 0.4, 0.6, 0.7, 0.940372200217098, 0, 77.08935546875, 2.966288300231099, 1.000000, 41.000000, 3.000000,3.000000,1.000000,6.000000,0.500000,1.000000
13, test, 4, no_probe, 4, 1, 4, 4, 1, 0.3, 0.7, right, 2, 0.3, 0.4, 0.6, 0.7, 1.0610457002185285, 0, , , 1.000000, 41.000000, 1.000000,2.000000,1.000000,6.000000,0.500000,1.000000
13, test, 4, probe, 5, 2, 3, 2, 3, 0.4, 0.6, left, 1, 0.3, 0.4, 0.6, 0.7, 1.1433115997351706, 1, 81.7894287109375, 1.616706000175327, 2.000000, 42.000000, 2.000000,2.000000,1.000000,6.000000,0.500000,1.000000
13, test, 4, no_probe, 6, 3, 1, 1, 3, 0.6, 0.3, right, 2, 0.3, 0.4, 0.6, 0.7, 1.4410158996470273, 0, , , 2.000000, 42.000000, 1.000000,3.000000,1.000000,6.000000,0.500000,1.000000
13, test, 4, no_probe, 7, 1, 4, 4, 1, 0.3, 0.7, right, 2, 0.3, 0.4, 0.6, 0.7, 2.0741236000321805, 0, , , 2.000000, 42.000000, 2.000000,3.000000,1.000000,6.000000,0.500000,1.000000
13, test, 4, probe, 8, 3, 1, 3, 1, 0.6, 0.3, left, 1, 0.3, 0.4, 0.6, 0.7, 0.584651299752295, 0, 78.17987060546875, 3.1499840999022126, 2.000000, 42.000000, 3.000000,3.000000,1.000000,6.000000,0.500000,1.000000
13, test, 4, no_probe, 9, 3, 2, 2, 3, 0.6, 0.4, right, 2, 0.3, 0.4, 0.6, 0.7, 1.4949011001735926, 1, , , 3.000000, 43.000000, 1.000000,2.000000,1.000000,6.000000,0.500000,1.000000
13, test, 4, probe, 10, 2, 1, 1, 2, 0.4, 0.3, right, 2, 0.3, 0.4, 0.6, 0.7, 1.7290258998982608, 1, 83.61630249023438, 1.7999849999323487, 4.000000, 44.000000, 2.000000,2.000000,1.000000,6.000000,0.500000,1.000000
13, test, 4, no_probe, 11, 3, 4, 3, 4, 0.6, 0.7, left, 1, 0.3, 0.4, 0.6, 0.7, 1.0468584997579455, 1, , , 5.000000, 45.000000, 1.000000,2.000000,1.000000,6.000000,0.500000,1.000000
13, test, 4, probe, 12, 3, 2, 3, 2, 0.6, 0.4, left, 1, 0.3, 0.4, 0.6, 0.7, 1.3945196000859141, 1, 80.62210083007812, 2.0999308000318706, 6.000000, 46.000000, 2.000000,2.000000,1.000000,6.000000,0.500000,1.000000
13, test, 4, no_probe, 13, 2, 3, 3, 2, 0.4, 0.6, right, 2, 0.3, 0.4, 0.6, 0.7, 1.9789229999296367, 1, , , 7.000000, 47.000000, 1.000000,2.000000,1.000000,6.000000,0.500000,1.000000
13, test, 4, probe, 14, 2, 1, 2, 1, 0.4, 0.3, left, 1, 0.3, 0.4, 0.6, 0.7, 0.8210877999663353, 1, 84.97821044921875, 4.066612999886274, 8.000000, 48.000000, 2.000000,2.000000,1.000000,6.000000,0.500000,1.000000
13, test, 4, no_probe, 15, 2, 4, 4, 2, 0.4, 0.7, right, 2, 0.3, 0.4, 0.6, 0.7, 0.7450588997453451, 0, , , 8.000000, 48.000000, 1.000000,2.000000,1.000000,6.000000,0.500000,1.000000
13, test, 4, probe, 16, 1, 4, 1, 4, 0.3, 0.7, left, 1, 0.3, 0.4, 0.6, 0.7, 1.7214346998371184, 0, 84.70791625976562, 2.6499331002123654, 8.000000, 48.000000, 2.000000,2.000000,1.000000,6.000000,0.500000,1.000000
13, test, 4, no_probe, 17, 3, 4, 4, 3, 0.6, 0.7, right, 2, 0.3, 0.4, 0.6, 0.7, 1.0419159000739455, 1, , , 9.000000, 49.000000, 1.000000,2.000000,1.000000,6.000000,0.500000,1.000000
13, test, 4, probe, 18, 2, 1, 1, 2, 0.4, 0.3, right, 2, 0.3, 0.4, 0.6, 0.7, 0.9379110997542739, 1, 85.0758056640625, 2.4333274997770786, 10.000000, 50.000000, 2.000000,2.000000,1.000000,6.000000,0.500000,1.000000
13, test, 4, no_probe, 19, 2, 1, 2, 1, 0.4, 0.3, left, 1, 0.3, 0.4, 0.6, 0.7, 1.4205395001918077, 0, , , 10.000000, 50.000000, 1.000000,2.000000,1.000000,6.000000,0.500000,1.000000
13, test, 4, probe, 20, 3, 1, 3, 1, 0.6, 0.3, left, 1, 0.3, 0.4, 0.6, 0.7, 0.7805412001907825, 1, 95.12237548828125, 4.749954799655825, 11.000000, 51.000000, 2.000000,2.000000,1.000000,6.000000,0.500000,1.000000
13, test, 4, no_probe, 21, 1, 4, 4, 1, 0.3, 0.7, right, 2, 0.3, 0.4, 0.6, 0.7, 0.7227050000801682, 1, , , 12.000000, 52.000000, 1.000000,2.000000,1.000000,6.000000,0.500000,1.000000
13, test, 4, probe, 22, 2, 1, 1, 2, 0.4, 0.3, right, 2, 0.3, 0.4, 0.6, 0.7, 1.4919805000536144, 1, 82.6251220703125, 2.5999489999376237, 13.000000, 53.000000, 2.000000,2.000000,1.000000,6.000000,0.500000,1.000000
13, test, 4, no_probe, 23, 4, 2, 2, 4, 0.7, 0.4, right, 2, 0.3, 0.4, 0.6, 0.7, 0.9091100003570318, 1, , , 14.000000, 54.000000, 1.000000,3.000000,1.000000,6.000000,0.500000,1.000000
13, test, 4, no_probe, 24, 3, 4, 4, 3, 0.6, 0.7, right, 2, 0.3, 0.4, 0.6, 0.7, 0.9653460998088121, 1, , , 15.000000, 55.000000, 2.000000,3.000000,1.000000,6.000000,0.500000,1.000000
13, test, 4, probe, 25, 4, 2, 4, 2, 0.7, 0.4, left, 1, 0.3, 0.4, 0.6, 0.7, 1.2841779002919793, 1, 74.73281860351562, 1.6999768000096083, 16.000000, 56.000000, 3.000000,3.000000,1.000000,6.000000,0.500000,1.000000
13, test, 5, no_probe, 1, 4, 3, 3, 4, 0.7, 0.6, right, 2, 0.3, 0.4, 0.6, 0.7, 1.98794319992885, 1, , , 1.000000, 57.000000, 1.000000,3.000000,1.000000,6.000000,0.500000,1.000000
13, test, 5, no_probe, 2, 4, 3, 3, 4, 0.7, 0.6, right, 2, 0.3, 0.4, 0.6, 0.7, 1.0201995000243187, 1, , , 2.000000, 58.000000, 2.000000,3.000000,1.000000,6.000000,0.500000,1.000000
13, test, 5, probe, 3, 3, 2, 3, 2, 0.6, 0.4, left, 1, 0.3, 0.4, 0.6, 0.7, 2.0588946999050677, 0, 89.76510620117188, 2.8163001001812518, 2.000000, 58.000000, 3.000000,3.000000,1.000000,6.000000,0.500000,1.000000
13, test, 5, no_probe, 4, 4, 3, 4, 3, 0.7, 0.6, left, 1, 0.3, 0.4, 0.6, 0.7, 3.087776300031692, 1, , , 3.000000, 59.000000, 1.000000,2.000000,1.000000,6.000000,0.500000,1.000000
13, test, 5, probe, 5, 2, 3, 2, 3, 0.4, 0.6, left, 1, 0.3, 0.4, 0.6, 0.7, 2.916663299780339, 0, 84.58035278320312, 5.899914599955082, 3.000000, 59.000000, 2.000000,2.000000,1.000000,6.000000,0.500000,1.000000
13, test, 5, no_probe, 6, 3, 1, 3, 1, 0.6, 0.3, left, 1, 0.3, 0.4, 0.6, 0.7, 1.484217899851501, 0, , , 3.000000, 59.000000, 1.000000,2.000000,1.000000,6.000000,0.500000,1.000000
13, test, 5, probe, 7, 3, 2, 3, 2, 0.6, 0.4, left, 1, 0.3, 0.4, 0.6, 0.7, 1.3555046999827027, 1, 78.66925048828125, 2.00000170012936, 4.000000, 60.000000, 2.000000,2.000000,1.000000,6.000000,0.500000,1.000000
13, test, 5, no_probe, 8, 4, 3, 4, 3, 0.7, 0.6, left, 1, 0.3, 0.4, 0.6, 0.7, 1.513640200253576, 1, , , 5.000000, 61.000000, 1.000000,3.000000,1.000000,6.000000,0.500000,1.000000
13, test, 5, no_probe, 9, 4, 3, 4, 3, 0.7, 0.6, left, 1, 0.3, 0.4, 0.6, 0.7, 0.6378679997287691, 1, , , 6.000000, 62.000000, 2.000000,3.000000,1.000000,6.000000,0.500000,1.000000
13, test, 5, probe, 10, 4, 1, 1, 4, 0.7, 0.3, right, 2, 0.3, 0.4, 0.6, 0.7, 1.8624002002179623, 1, 82.67431640625, 2.549979499541223, 7.000000, 63.000000, 3.000000,3.000000,1.000000,6.000000,0.500000,1.000000
13, test, 5, no_probe, 11, 3, 1, 1, 3, 0.6, 0.3, right, 2, 0.3, 0.4, 0.6, 0.7, 2.801374400034547, 1, , , 8.000000, 64.000000, 1.000000,3.000000,1.000000,6.000000,0.500000,1.000000
13, test, 5, no_probe, 12, 3, 2, 3, 2, 0.6, 0.4, left, 1, 0.3, 0.4, 0.6, 0.7, 1.8987435000017285, 1, , , 9.000000, 65.000000, 2.000000,3.000000,1.000000,6.000000,0.500000,1.000000
13, test, 5, probe, 13, 3, 1, 3, 1, 0.6, 0.3, left, 1, 0.3, 0.4, 0.6, 0.7, 1.2191925002261996, 1, 87.94839477539062, 2.3499459996819496, 10.000000, 66.000000, 3.000000,3.000000,1.000000,6.000000,0.500000,1.000000
13, test, 5, no_probe, 14, 3, 1, 1, 3, 0.6, 0.3, right, 2, 0.3, 0.4, 0.6, 0.7, 0.9202868998982012, 1, , , 11.000000, 67.000000, 1.000000,3.000000,1.000000,6.000000,0.500000,1.000000
13, test, 5, no_probe, 15, 3, 1, 3, 1, 0.6, 0.3, left, 1, 0.3, 0.4, 0.6, 0.7, 1.0070917000994086, 1, , , 12.000000, 68.000000, 2.000000,3.000000,1.000000,6.000000,0.500000,1.000000
13, test, 5, probe, 16, 3, 2, 3, 2, 0.6, 0.4, left, 1, 0.3, 0.4, 0.6, 0.7, 1.7604894996620715, 1, 90.12838745117188, 2.399939499795437, 13.000000, 69.000000, 3.000000,3.000000,1.000000,6.000000,0.500000,1.000000
13, test, 5, no_probe, 17, 4, 1, 4, 1, 0.7, 0.3, left, 1, 0.3, 0.4, 0.6, 0.7, 1.0103172999806702, 0, , , 13.000000, 69.000000, 1.000000,2.000000,1.000000,6.000000,0.500000,1.000000
13, test, 5, probe, 18, 4, 2, 2, 4, 0.7, 0.4, right, 2, 0.3, 0.4, 0.6, 0.7, 2.3837684001773596, 1, 82.43136596679688, 1.4833042002283037, 14.000000, 70.000000, 2.000000,2.000000,1.000000,6.000000,0.500000,1.000000
13, test, 5, no_probe, 19, 4, 2, 4, 2, 0.7, 0.4, left, 1, 0.3, 0.4, 0.6, 0.7, 0.9755464000627398, 1, , , 15.000000, 71.000000, 1.000000,2.000000,1.000000,6.000000,0.500000,1.000000
13, test, 5, probe, 20, 1, 2, 2, 1, 0.3, 0.4, right, 2, 0.3, 0.4, 0.6, 0.7, 1.570754799991846, 0, 85.96087646484375, 2.2833116999827325, 15.000000, 71.000000, 2.000000,2.000000,1.000000,6.000000,0.500000,1.000000
13, test, 5, no_probe, 21, 4, 1, 4, 1, 0.7, 0.3, left, 1, 0.3, 0.4, 0.6, 0.7, 0.8572336998768151, 1, , , 16.000000, 72.000000, 1.000000,2.000000,1.000000,6.000000,0.500000,1.000000
13, test, 5, probe, 22, 3, 4, 3, 4, 0.6, 0.7, left, 1, 0.3, 0.4, 0.6, 0.7, 3.0516761001199484, 0, 77.47796630859375, 3.4499570997431874, 16.000000, 72.000000, 2.000000,2.000000,1.000000,6.000000,0.500000,1.000000
13, test, 5, no_probe, 23, 4, 2, 2, 4, 0.7, 0.4, right, 2, 0.3, 0.4, 0.6, 0.7, 1.2734325998462737, 1, , , 17.000000, 73.000000, 1.000000,2.000000,1.000000,6.000000,0.500000,1.000000
13, test, 5, probe, 24, 1, 2, 2, 1, 0.3, 0.4, right, 2, 0.3, 0.4, 0.6, 0.7, 2.5915886000730097, 0, 78.74179077148438, 5.183261699974537, 17.000000, 73.000000, 2.000000,2.000000,1.000000,6.000000,0.500000,1.000000
13, test, 5, no_probe, 25, 3, 2, 2, 3, 0.6, 0.4, right, 2, 0.3, 0.4, 0.6, 0.7, 2.2365792002528906, 0, , , 17.000000, 73.000000, 1.000000,2.000000,1.000000,6.000000,0.500000,1.000000
13, test, 6, no_probe, 1, 2, 4, 2, 4, 0.4, 0.7, left, 1, 0.3, 0.4, 0.6, 0.7, 1.5155276004225016, 0, , , 0.000000, 73.000000, 1.000000,2.000000,1.000000,6.000000,0.500000,1.000000
13, test, 6, probe, 2, 3, 2, 2, 3, 0.6, 0.4, right, 2, 0.3, 0.4, 0.6, 0.7, 1.507663699798286, 0, 89.62240600585938, 3.2666001999750733, 0.000000, 73.000000, 2.000000,2.000000,1.000000,6.000000,0.500000,1.000000
13, test, 6, no_probe, 3, 3, 2, 3, 2, 0.6, 0.4, left, 1, 0.3, 0.4, 0.6, 0.7, 0.9685134999454021, 1, , , 1.000000, 74.000000, 1.000000,3.000000,1.000000,6.000000,0.500000,1.000000
13, test, 6, no_probe, 4, 4, 2, 4, 2, 0.7, 0.4, left, 1, 0.3, 0.4, 0.6, 0.7, 1.0116277998313308, 0, , , 1.000000, 74.000000, 2.000000,3.000000,1.000000,6.000000,0.500000,1.000000
13, test, 6, probe, 5, 3, 4, 3, 4, 0.6, 0.7, left, 1, 0.3, 0.4, 0.6, 0.7, 1.0241831000894308, 0, 82.27032470703125, 2.2166309002786875, 1.000000, 74.000000, 3.000000,3.000000,1.000000,6.000000,0.500000,1.000000
13, test, 6, no_probe, 6, 4, 1, 1, 4, 0.7, 0.3, right, 2, 0.3, 0.4, 0.6, 0.7, 1.062580700032413, 0, , , 1.000000, 74.000000, 1.000000,3.000000,1.000000,6.000000,0.500000,1.000000
13, test, 6, no_probe, 7, 4, 3, 4, 3, 0.7, 0.6, left, 1, 0.3, 0.4, 0.6, 0.7, 0.886188100092113, 1, , , 2.000000, 75.000000, 2.000000,3.000000,1.000000,6.000000,0.500000,1.000000
13, test, 6, probe, 8, 2, 3, 2, 3, 0.4, 0.6, left, 1, 0.3, 0.4, 0.6, 0.7, 1.8008400001563132, 1, 78.32028198242188, 2.383289000019431, 3.000000, 76.000000, 3.000000,3.000000,1.000000,6.000000,0.500000,1.000000
13, test, 6, no_probe, 9, 4, 2, 2, 4, 0.7, 0.4, right, 2, 0.3, 0.4, 0.6, 0.7, 0.8288532001897693, 1, , , 4.000000, 77.000000, 1.000000,2.000000,1.000000,6.000000,0.500000,1.000000
13, test, 6, probe, 10, 1, 3, 1, 3, 0.3, 0.6, left, 1, 0.3, 0.4, 0.6, 0.7, 2.7209572000429034, 0, 79.17950439453125, 1.4332975996658206, 4.000000, 77.000000, 2.000000,2.000000,1.000000,6.000000,0.500000,1.000000
13, test, 6, no_probe, 11, 4, 1, 1, 4, 0.7, 0.3, right, 2, 0.3, 0.4, 0.6, 0.7, 0.9948971997946501, 0, , , 4.000000, 77.000000, 1.000000,3.000000,1.000000,6.000000,0.500000,1.000000
13, test, 6, no_probe, 12, 2, 4, 4, 2, 0.4, 0.7, right, 2, 0.3, 0.4, 0.6, 0.7, 3.061062399763614, 0, , , 4.000000, 77.000000, 2.000000,3.000000,1.000000,6.000000,0.500000,1.000000
13, test, 6, probe, 13, 4, 2, 2, 4, 0.7, 0.4, right, 2, 0.3, 0.4, 0.6, 0.7, 1.2355967997573316, 1, 78.46441650390625, 2.399972000159323, 5.000000, 78.000000, 3.000000,3.000000,1.000000,6.000000,0.500000,1.000000
13, test, 6, no_probe, 14, 3, 2, 2, 3, 0.6, 0.4, right, 2, 0.3, 0.4, 0.6, 0.7, 2.7776747001335025, 0, , , 5.000000, 78.000000, 1.000000,3.000000,1.000000,6.000000,0.500000,1.000000
13, test, 6, no_probe, 15, 4, 3, 3, 4, 0.7, 0.6, right, 2, 0.3, 0.4, 0.6, 0.7, 0.9881207002326846, 0, , , 5.000000, 78.000000, 2.000000,3.000000,1.000000,6.000000,0.500000,1.000000
13, test, 6, probe, 16, 3, 4, 4, 3, 0.6, 0.7, right, 2, 0.3, 0.4, 0.6, 0.7, 0.6498667998239398, 0, 87.77627563476562, 3.3999927998520434, 5.000000, 78.000000, 3.000000,3.000000,1.000000,6.000000,0.500000,1.000000
13, test, 6, no_probe, 17, 2, 3, 2, 3, 0.4, 0.6, left, 1, 0.3, 0.4, 0.6, 0.7, 0.9409432001411915, 0, , , 5.000000, 78.000000, 1.000000,2.000000,1.000000,6.000000,0.500000,1.000000
13, test, 6, probe, 18, 3, 1, 3, 1, 0.6, 0.3, left, 1, 0.3, 0.4, 0.6, 0.7, 1.21551419980824, 0, 84.26937866210938, 1.783343699760735, 5.000000, 78.000000, 2.000000,2.000000,1.000000,6.000000,0.500000,1.000000
13, test, 6, no_probe, 19, 4, 2, 4, 2, 0.7, 0.4, left, 1, 0.3, 0.4, 0.6, 0.7, 1.699718500021845, 1, , , 6.000000, 79.000000, 1.000000,2.000000,1.000000,6.000000,0.500000,1.000000
13, test, 6, probe, 20, 2, 1, 1, 2, 0.4, 0.3, right, 2, 0.3, 0.4, 0.6, 0.7, 1.4535644999705255, 0, 84.14334106445312, 2.2999847000464797, 6.000000, 79.000000, 2.000000,2.000000,1.000000,6.000000,0.500000,1.000000
13, test, 6, no_probe, 21, 3, 4, 4, 3, 0.6, 0.7, right, 2, 0.3, 0.4, 0.6, 0.7, 1.459330900106579, 1, , , 7.000000, 80.000000, 1.000000,2.000000,1.000000,6.000000,0.500000,1.000000
13, test, 6, probe, 22, 3, 1, 1, 3, 0.6, 0.3, right, 2, 0.3, 0.4, 0.6, 0.7, 1.5540494001470506, 1, 85.73165893554688, 2.2999615003354847, 8.000000, 81.000000, 2.000000,2.000000,1.000000,6.000000,0.500000,1.000000
13, test, 6, no_probe, 23, 3, 2, 3, 2, 0.6, 0.4, left, 1, 0.3, 0.4, 0.6, 0.7, 1.440160600002855, 1, , , 9.000000, 82.000000, 1.000000,2.000000,1.000000,6.000000,0.500000,1.000000
13, test, 6, probe, 24, 3, 4, 3, 4, 0.6, 0.7, left, 1, 0.3, 0.4, 0.6, 0.7, 1.2251432999037206, 1, 85.91000366210938, 1.5166442999616265, 10.000000, 83.000000, 2.000000,2.000000,1.000000,6.000000,0.500000,1.000000
13, test, 6, no_probe, 25, 4, 1, 1, 4, 0.7, 0.3, right, 2, 0.3, 0.4, 0.6, 0.7, 1.1477719997055829, 0, , , 10.000000, 83.000000, 1.000000,2.000000,1.000000,6.000000,0.500000,1.000000
13, test, 7, no_probe, 1, 2, 3, 3, 2, 0.4, 0.6, right, 2, 0.3, 0.4, 0.6, 0.7, 0.8462006999179721, 0, , , 0.000000, 83.000000, 1.000000,3.000000,1.000000,6.000000,0.500000,1.000000
13, test, 7, no_probe, 2, 2, 4, 4, 2, 0.4, 0.7, right, 2, 0.3, 0.4, 0.6, 0.7, 1.4378717001527548, 0, , , 0.000000, 83.000000, 2.000000,3.000000,1.000000,6.000000,0.500000,1.000000
13, test, 7, probe, 3, 3, 2, 3, 2, 0.6, 0.4, left, 1, 0.3, 0.4, 0.6, 0.7, 0.9489086996763945, 0, 79.17221069335938, 2.499566599726677, 0.000000, 83.000000, 3.000000,3.000000,1.000000,6.000000,0.500000,1.000000
13, test, 7, no_probe, 4, 3, 4, 4, 3, 0.6, 0.7, right, 2, 0.3, 0.4, 0.6, 0.7, 2.9713369999080896, 0, , , 0.000000, 83.000000, 1.000000,2.000000,1.000000,6.000000,0.500000,1.000000
13, test, 7, probe, 5, 1, 4, 4, 1, 0.3, 0.7, right, 2, 0.3, 0.4, 0.6, 0.7, 1.762325800023973, 0, 82.51190185546875, 1.5666383998468518, 0.000000, 83.000000, 2.000000,2.000000,1.000000,6.000000,0.500000,1.000000
13, test, 7, no_probe, 6, 4, 2, 4, 2, 0.7, 0.4, left, 1, 0.3, 0.4, 0.6, 0.7, 1.2040707999840379, 1, , , 1.000000, 84.000000, 1.000000,3.000000,1.000000,6.000000,0.500000,1.000000
13, test, 7, no_probe, 7, 4, 3, 4, 3, 0.7, 0.6, left, 1, 0.3, 0.4, 0.6, 0.7, 1.0699461000040174, 1, , , 2.000000, 85.000000, 2.000000,3.000000,1.000000,6.000000,0.500000,1.000000
13, test, 7, probe, 8, 4, 3, 3, 4, 0.7, 0.6, right, 2, 0.3, 0.4, 0.6, 0.7, 1.67643509991467, 1, 80.5970458984375, 1.6666085002943873, 3.000000, 86.000000, 3.000000,3.000000,1.000000,6.000000,0.500000,1.000000
13, test, 7, no_probe, 9, 2, 3, 2, 3, 0.4, 0.6, left, 1, 0.3, 0.4, 0.6, 0.7, 1.3792828996665776, 0, , , 3.000000, 86.000000, 1.000000,3.000000,1.000000,6.000000,0.500000,1.000000
13, test, 7, no_probe, 10, 2, 1, 2, 1, 0.4, 0.3, left, 1, 0.3, 0.4, 0.6, 0.7, 2.0898631997406483, 1, , , 4.000000, 87.000000, 2.000000,3.000000,1.000000,6.000000,0.500000,1.000000
13, test, 7, probe, 11, 1, 3, 3, 1, 0.3, 0.6, right, 2, 0.3, 0.4, 0.6, 0.7, 0.9121913998387754, 0, 80.929443359375, 1.9666489996016026, 4.000000, 87.000000, 3.000000,3.000000,1.000000,6.000000,0.500000,1.000000
13, test, 7, no_probe, 12, 4, 3, 3, 4, 0.7, 0.6, right, 2, 0.3, 0.4, 0.6, 0.7, 1.1956055001355708, 1, , , 5.000000, 88.000000, 1.000000,3.000000,1.000000,6.000000,0.500000,1.000000
13, test, 7, no_probe, 13, 3, 1, 3, 1, 0.6, 0.3, left, 1, 0.3, 0.4, 0.6, 0.7, 1.0414146999828517, 0, , , 5.000000, 88.000000, 2.000000,3.000000,1.000000,6.000000,0.500000,1.000000
13, test, 7, probe, 14, 4, 3, 4, 3, 0.7, 0.6, left, 1, 0.3, 0.4, 0.6, 0.7, 1.0692519000731409, 1, 83.09991455078125, 1.633296700194478, 6.000000, 89.000000, 3.000000,3.000000,1.000000,6.000000,0.500000,1.000000
13, test, 7, no_probe, 15, 2, 3, 3, 2, 0.4, 0.6, right, 2, 0.3, 0.4, 0.6, 0.7, 3.4905902999453247, 0, , , 6.000000, 89.000000, 1.000000,2.000000,1.000000,6.000000,0.500000,1.000000
13, test, 7, probe, 16, 2, 3, 2, 3, 0.4, 0.6, left, 1, 0.3, 0.4, 0.6, 0.7, 1.1367986998520792, 1, 80.1114501953125, 3.1499439999461174, 7.000000, 90.000000, 2.000000,2.000000,1.000000,6.000000,0.500000,1.000000
13, test, 7, no_probe, 17, 1, 4, 1, 4, 0.3, 0.7, left, 1, 0.3, 0.4, 0.6, 0.7, 1.7759123998694122, 1, , , 8.000000, 91.000000, 1.000000,2.000000,1.000000,6.000000,0.500000,1.000000
13, test, 7, probe, 18, 1, 4, 1, 4, 0.3, 0.7, left, 1, 0.3, 0.4, 0.6, 0.7, 1.3589288000948727, 0, 79.80987548828125, 1.6166369002312422, 8.000000, 91.000000, 2.000000,2.000000,1.000000,6.000000,0.500000,1.000000
13, test, 7, no_probe, 19, 4, 3, 4, 3, 0.7, 0.6, left, 1, 0.3, 0.4, 0.6, 0.7, 0.7529758997261524, 1, , , 9.000000, 92.000000, 1.000000,3.000000,1.000000,6.000000,0.500000,1.000000
13, test, 7, no_probe, 20, 3, 1, 3, 1, 0.6, 0.3, left, 1, 0.3, 0.4, 0.6, 0.7, 1.607604299671948, 1, , , 10.000000, 93.000000, 2.000000,3.000000,1.000000,6.000000,0.500000,1.000000
13, test, 7, probe, 21, 2, 3, 2, 3, 0.4, 0.6, left, 1, 0.3, 0.4, 0.6, 0.7, 1.7781560998409986, 0, 83.29876708984375, 2.266631899867207, 10.000000, 93.000000, 3.000000,3.000000,1.000000,6.000000,0.500000,1.000000
13, test, 7, no_probe, 22, 2, 3, 2, 3, 0.4, 0.6, left, 1, 0.3, 0.4, 0.6, 0.7, 0.6953738001175225, 0, , , 10.000000, 93.000000, 1.000000,3.000000,1.000000,6.000000,0.500000,1.000000
13, test, 7, no_probe, 23, 4, 2, 4, 2, 0.7, 0.4, left, 1, 0.3, 0.4, 0.6, 0.7, 0.9488471001386642, 1, , , 11.000000, 94.000000, 2.000000,3.000000,1.000000,6.000000,0.500000,1.000000
13, test, 7, probe, 24, 4, 2, 2, 4, 0.7, 0.4, right, 2, 0.3, 0.4, 0.6, 0.7, 1.621115599758923, 1, 77.48739624023438, 2.2999595003202558, 12.000000, 95.000000, 3.000000,3.000000,1.000000,6.000000,0.500000,1.000000
13, test, 7, no_probe, 25, 1, 2, 2, 1, 0.3, 0.4, right, 2, 0.3, 0.4, 0.6, 0.7, 1.5912472000345588, 0, , , 12.000000, 95.000000, 1.000000,2.000000,1.000000,6.000000,0.500000,1.000000
13, test, 8, no_probe, 1, 3, 1, 3, 1, 0.6, 0.3, left, 1, 0.3, 0.4, 0.6, 0.7, 1.9613389996811748, 1, , , 1.000000, 96.000000, 1.000000,3.000000,1.000000,6.000000,0.500000,1.000000
13, test, 8, no_probe, 2, 2, 4, 2, 4, 0.4, 0.7, left, 1, 0.3, 0.4, 0.6, 0.7, 0.8990985997952521, 1, , , 2.000000, 97.000000, 2.000000,3.000000,1.000000,6.000000,0.500000,1.000000
13, test, 8, probe, 3, 4, 1, 1, 4, 0.7, 0.3, right, 2, 0.3, 0.4, 0.6, 0.7, 4.897154300007969, 1, 86.13656616210938, 5.332823000382632, 3.000000, 98.000000, 3.000000,3.000000,1.000000,6.000000,0.500000,1.000000
13, test, 8, no_probe, 4, 1, 2, 1, 2, 0.3, 0.4, left, 1, 0.3, 0.4, 0.6, 0.7, 2.87513649975881, 0, , , 3.000000, 98.000000, 1.000000,3.000000,1.000000,6.000000,0.500000,1.000000
13, test, 8, no_probe, 5, 4, 1, 4, 1, 0.7, 0.3, left, 1, 0.3, 0.4, 0.6, 0.7, 1.807181999552995, 0, , , 3.000000, 98.000000, 2.000000,3.000000,1.000000,6.000000,0.500000,1.000000
13, test, 8, probe, 6, 3, 1, 3, 1, 0.6, 0.3, left, 1, 0.3, 0.4, 0.6, 0.7, 1.6686954000033438, 0, 83.586181640625, 1.5499735996127129, 3.000000, 98.000000, 3.000000,3.000000,1.000000,6.000000,0.500000,1.000000
13, test, 8, no_probe, 7, 1, 2, 2, 1, 0.3, 0.4, right, 2, 0.3, 0.4, 0.6, 0.7, 1.330534900072962, 0, , , 3.000000, 98.000000, 1.000000,2.000000,1.000000,6.000000,0.500000,1.000000
13, test, 8, probe, 8, 2, 1, 2, 1, 0.4, 0.3, left, 1, 0.3, 0.4, 0.6, 0.7, 0.804022999946028, 0, 77.0015869140625, 2.5333120999857783, 3.000000, 98.000000, 2.000000,2.000000,1.000000,6.000000,0.500000,1.000000
13, test, 8, no_probe, 9, 3, 1, 1, 3, 0.6, 0.3, right, 2, 0.3, 0.4, 0.6, 0.7, 1.9660536996088922, 0, , , 3.000000, 98.000000, 1.000000,3.000000,1.000000,6.000000,0.500000,1.000000
13, test, 8, no_probe, 10, 2, 4, 2, 4, 0.4, 0.7, left, 1, 0.3, 0.4, 0.6, 0.7, 0.8960314001888037, 0, , , 3.000000, 98.000000, 2.000000,3.000000,1.000000,6.000000,0.500000,1.000000
13, test, 8, probe, 11, 1, 3, 1, 3, 0.3, 0.6, left, 1, 0.3, 0.4, 0.6, 0.7, 2.429533099755645, 0, 76.44207763671875, 3.2666150997392833, 3.000000, 98.000000, 3.000000,3.000000,1.000000,6.000000,0.500000,1.000000
13, test, 8, no_probe, 12, 2, 3, 3, 2, 0.4, 0.6, right, 2, 0.3, 0.4, 0.6, 0.7, 0.6303730998188257, 1, , , 4.000000, 99.000000, 1.000000,2.000000,1.000000,6.000000,0.500000,1.000000
13, test, 8, probe, 13, 2, 4, 2, 4, 0.4, 0.7, left, 1, 0.3, 0.4, 0.6, 0.7, 0.7176669999025762, 0, 82.04910278320312, 1.6166254999116063, 4.000000, 99.000000, 2.000000,2.000000,1.000000,6.000000,0.500000,1.000000
13, test, 8, no_probe, 14, 3, 4, 4, 3, 0.6, 0.7, right, 2, 0.3, 0.4, 0.6, 0.7, 0.5007225996814668, 0, , , 4.000000, 99.000000, 1.000000,3.000000,1.000000,6.000000,0.500000,1.000000
13, test, 8, no_probe, 15, 1, 3, 1, 3, 0.3, 0.6, left, 1, 0.3, 0.4, 0.6, 0.7, 2.55351070035249, 0, , , 4.000000, 99.000000, 2.000000,3.000000,1.000000,6.000000,0.500000,1.000000
13, test, 8, probe, 16, 2, 3, 2, 3, 0.4, 0.6, left, 1, 0.3, 0.4, 0.6, 0.7, 1.0059503000229597, 1, 74.64105224609375, 1.4000050001777709, 5.000000, 100.000000, 3.000000,3.000000,1.000000,6.000000,0.500000,1.000000
13, test, 8, no_probe, 17, 2, 3, 3, 2, 0.4, 0.6, right, 2, 0.3, 0.4, 0.6, 0.7, 1.089810499921441, 1, , , 6.000000, 101.000000, 1.000000,2.000000,1.000000,6.000000,0.500000,1.000000
13, test, 8, probe, 18, 3, 1, 1, 3, 0.6, 0.3, right, 2, 0.3, 0.4, 0.6, 0.7, 1.3508287002332509, 1, 78.50604248046875, 3.8832761999219656, 7.000000, 102.000000, 2.000000,2.000000,1.000000,6.000000,0.500000,1.000000
13, test, 8, no_probe, 19, 3, 1, 1, 3, 0.6, 0.3, right, 2, 0.3, 0.4, 0.6, 0.7, 0.711284099612385, 0, , , 7.000000, 102.000000, 1.000000,3.000000,1.000000,6.000000,0.500000,1.000000
13, test, 8, no_probe, 20, 2, 4, 4, 2, 0.4, 0.7, right, 2, 0.3, 0.4, 0.6, 0.7, 0.7712572002783418, 0, , , 7.000000, 102.000000, 2.000000,3.000000,1.000000,6.000000,0.500000,1.000000
13, test, 8, probe, 21, 4, 1, 4, 1, 0.7, 0.3, left, 1, 0.3, 0.4, 0.6, 0.7, 2.7299188999459147, 1, 81.60659790039062, 1.516614600084722, 8.000000, 103.000000, 3.000000,3.000000,1.000000,6.000000,0.500000,1.000000
13, test, 8, no_probe, 22, 2, 4, 4, 2, 0.4, 0.7, right, 2, 0.3, 0.4, 0.6, 0.7, 0.5529734999872744, 0, , , 8.000000, 103.000000, 1.000000,2.000000,1.000000,6.000000,0.500000,1.000000
13, test, 8, probe, 23, 4, 1, 4, 1, 0.7, 0.3, left, 1, 0.3, 0.4, 0.6, 0.7, 0.971886099781841, 1, 81.44357299804688, 1.399965399876237, 9.000000, 104.000000, 2.000000,2.000000,1.000000,6.000000,0.500000,1.000000
13, test, 8, no_probe, 24, 2, 4, 2, 4, 0.4, 0.7, left, 1, 0.3, 0.4, 0.6, 0.7, 0.6376161999069154, 1, , , 10.000000, 105.000000, 1.000000,3.000000,1.000000,6.000000,0.500000,1.000000
13, test, 8, no_probe, 25, 3, 1, 1, 3, 0.6, 0.3, right, 2, 0.3, 0.4, 0.6, 0.7, 1.132633799687028, 1, , , 11.000000, 106.000000, 2.000000,3.000000,1.000000,6.000000,0.500000,1.000000
