subject, block_type, block, thought probe, trial, chosen, unchosen, offer_left_image, offer_right_image, exp_value_chosen, exp_value_unchosen, choice_location, choice_key, exp_value1, exp_value2, exp_value3, exp_value4, RT, reward, vas, RT_vas, coins_per_block, coins_per_task, count_to_prob, ntrial_to_prob, ITI_duration,RT_deadline,choice_feedback_duration,outcome_duration
22, test, 1, no_probe, 1, 2, 4, 2, 4, 0.4, 0.7, left, 1, 0.3, 0.4, 0.6, 0.7, 3.5422109000210185, 1, , , 1.000000, 1.000000, 1.000000,2.000000,1.000000,6.000000,0.500000,1.000000
22, test, 1, probe, 2, 3, 4, 3, 4, 0.6, 0.7, left, 1, 0.3, 0.4, 0.6, 0.7, 1.2582477999967523, 1, 76.57977294921875, 6.3664933999825735, 2.000000, 2.000000, 2.000000,2.000000,1.000000,6.000000,0.500000,1.000000
22, test, 1, no_probe, 3, 4, 3, 4, 3, 0.7, 0.6, left, 1, 0.3, 0.4, 0.6, 0.7, 1.037454199977219, 0, , , 2.000000, 2.000000, 1.000000,3.000000,1.000000,6.000000,0.500000,1.000000
22, test, 1, no_probe, 4, 3, 2, 2, 3, 0.6, 0.4, right, 2, 0.3, 0.4, 0.6, 0.7, 1.1094150000135414, 1, , , 3.000000, 3.000000, 2.000000,3.000000,1.000000,6.000000,0.500000,1.000000
22, test, 1, probe, 5, 1, 3, 3, 1, 0.3, 0.6, right, 2, 0.3, 0.4, 0.6, 0.7, 1.1224950999894645, 0, 87.388427734375, 2.766652400023304, 3.000000, 3.000000, 3.000000,3.000000,1.000000,6.000000,0.500000,1.000000
22, test, 1, no_probe, 6, 3, 4, 3, 4, 0.6, 0.7, left, 1, 0.3, 0.4, 0.6, 0.7, 1.1069334000058006, 0, , , 3.000000, 3.000000, 1.000000,2.000000,1.000000,6.000000,0.500000,1.000000
22, test, 1, no_probe, 1, 2, 4, 2, 4, 0.4, 0.7, left, 1, 0.3, 0.4, 0.6, 0.7, 0.8283248000079766, 0, , , 0.000000, 3.000000, 1.000000,3.000000,1.000000,6.000000,0.500000,1.000000
22, test, 1, no_probe, 2, 1, 2, 1, 2, 0.3, 0.4, left, 1, 0.3, 0.4, 0.6, 0.7, 0.9558804999978747, 1, , , 1.000000, 4.000000, 2.000000,3.000000,1.000000,6.000000,0.500000,1.000000
22, test, 1, probe, 3, 3, 2, 3, 2, 0.6, 0.4, left, 1, 0.3, 0.4, 0.6, 0.7, 0.9803848000010476, 1, 71.93939208984375, 2.6163017000071704, 2.000000, 5.000000, 3.000000,3.000000,1.000000,6.000000,0.500000,1.000000
22, test, 1, no_probe, 4, 3, 1, 1, 3, 0.6, 0.3, right, 2, 0.3, 0.4, 0.6, 0.7, 2.3918683000083547, 1, , , 3.000000, 6.000000, 1.000000,2.000000,1.000000,6.000000,0.500000,1.000000
22, test, 1, probe, 5, 3, 4, 3, 4, 0.6, 0.7, left, 1, 0.3, 0.4, 0.6, 0.7, 1.1975045999861322, 1, 91.25552368164062, 2.6165844000061043, 4.000000, 7.000000, 2.000000,2.000000,1.000000,6.000000,0.500000,1.000000
22, test, 1, no_probe, 6, 1, 4, 1, 4, 0.3, 0.7, left, 1, 0.3, 0.4, 0.6, 0.7, 2.3405906000116374, 0, , , 4.000000, 7.000000, 1.000000,2.000000,1.000000,6.000000,0.500000,1.000000
22, test, 1, probe, 7, 3, 1, 3, 1, 0.6, 0.3, left, 1, 0.3, 0.4, 0.6, 0.7, 1.1052611000195611, 1, 68.10650634765625, 1.6666446000162978, 5.000000, 8.000000, 2.000000,2.000000,1.000000,6.000000,0.500000,1.000000
22, test, 1, no_probe, 8, 4, 2, 2, 4, 0.7, 0.4, right, 2, 0.3, 0.4, 0.6, 0.7, 2.47825919999741, 1, , , 6.000000, 9.000000, 1.000000,3.000000,1.000000,6.000000,0.500000,1.000000
22, test, 1, no_probe, 9, 3, 2, 2, 3, 0.6, 0.4, right, 2, 0.3, 0.4, 0.6, 0.7, 0.7482618999783881, 0, , , 6.000000, 9.000000, 2.000000,3.000000,1.000000,6.000000,0.500000,1.000000
22, test, 1, probe, 10, 3, 1, 1, 3, 0.6, 0.3, right, 2, 0.3, 0.4, 0.6, 0.7, 2.577031900000293, 1, 57.441741943359375, 2.0666323000041302, 7.000000, 10.000000, 3.000000,3.000000,1.000000,6.000000,0.500000,1.000000
22, test, 1, no_probe, 11, 4, 1, 1, 4, 0.7, 0.3, right, 2, 0.3, 0.4, 0.6, 0.7, 1.5274127000011504, 0, , , 7.000000, 10.000000, 1.000000,2.000000,1.000000,6.000000,0.500000,1.000000
22, test, 1, probe, 12, 4, 3, 3, 4, 0.7, 0.6, right, 2, 0.3, 0.4, 0.6, 0.7, 0.5394127999898046, 1, 64.94058227539062, 2.2833444999996573, 8.000000, 11.000000, 2.000000,2.000000,1.000000,6.000000,0.500000,1.000000
22, test, 1, no_probe, 13, 3, 1, 1, 3, 0.6, 0.3, right, 2, 0.3, 0.4, 0.6, 0.7, 1.1591314000252169, 1, , , 9.000000, 12.000000, 1.000000,2.000000,1.000000,6.000000,0.500000,1.000000
22, test, 1, probe, 14, 4, 2, 4, 2, 0.7, 0.4, left, 1, 0.3, 0.4, 0.6, 0.7, 0.9634862999955658, 1, 68.11346435546875, 1.766663399990648, 10.000000, 13.000000, 2.000000,2.000000,1.000000,6.000000,0.500000,1.000000
22, test, 1, no_probe, 15, 3, 2, 2, 3, 0.6, 0.4, right, 2, 0.3, 0.4, 0.6, 0.7, 0.9178003999986686, 1, , , 11.000000, 14.000000, 1.000000,3.000000,1.000000,6.000000,0.500000,1.000000
22, test, 1, no_probe, 16, 3, 2, 2, 3, 0.6, 0.4, right, 2, 0.3, 0.4, 0.6, 0.7, 0.6589198000147007, 0, , , 11.000000, 14.000000, 2.000000,3.000000,1.000000,6.000000,0.500000,1.000000
22, test, 1, probe, 17, 4, 1, 1, 4, 0.7, 0.3, right, 2, 0.3, 0.4, 0.6, 0.7, 0.45778599998448044, 0, 68.46286010742188, 1.4999699000036344, 11.000000, 14.000000, 3.000000,3.000000,1.000000,6.000000,0.500000,1.000000
22, test, 1, no_probe, 18, 4, 2, 2, 4, 0.7, 0.4, right, 2, 0.3, 0.4, 0.6, 0.7, 1.211919699999271, 1, , , 12.000000, 15.000000, 1.000000,3.000000,1.000000,6.000000,0.500000,1.000000
22, test, 1, no_probe, 19, 3, 2, 3, 2, 0.6, 0.4, left, 1, 0.3, 0.4, 0.6, 0.7, 1.556950300000608, 1, , , 13.000000, 16.000000, 2.000000,3.000000,1.000000,6.000000,0.500000,1.000000
22, test, 1, probe, 20, 1, 2, 2, 1, 0.3, 0.4, right, 2, 0.3, 0.4, 0.6, 0.7, 2.700367500016, 0, 38.006591796875, 3.9165800999908242, 13.000000, 16.000000, 3.000000,3.000000,1.000000,6.000000,0.500000,1.000000
22, test, 1, no_probe, 21, 1, 4, 4, 1, 0.3, 0.7, right, 2, 0.3, 0.4, 0.6, 0.7, 2.250915200012969, 0, , , 13.000000, 16.000000, 1.000000,2.000000,1.000000,6.000000,0.500000,1.000000
22, test, 1, probe, 22, 2, 1, 2, 1, 0.4, 0.3, left, 1, 0.3, 0.4, 0.6, 0.7, 2.8815523000084795, 0, 67.12518310546875, 1.866663199994946, 13.000000, 16.000000, 2.000000,2.000000,1.000000,6.000000,0.500000,1.000000
22, test, 1, no_probe, 23, 3, 2, 2, 3, 0.6, 0.4, right, 2, 0.3, 0.4, 0.6, 0.7, 1.7323118000058457, 1, , , 14.000000, 17.000000, 1.000000,3.000000,1.000000,6.000000,0.500000,1.000000
22, test, 1, no_probe, 24, 1, 3, 3, 1, 0.3, 0.6, right, 2, 0.3, 0.4, 0.6, 0.7, 1.5720403000013903, 0, , , 14.000000, 17.000000, 2.000000,3.000000,1.000000,6.000000,0.500000,1.000000
22, test, 1, probe, 25, 4, 1, 1, 4, 0.7, 0.3, right, 2, 0.3, 0.4, 0.6, 0.7, 2.6509955000074115, 0, 55.414520263671875, 1.7666431999823544, 14.000000, 17.000000, 3.000000,3.000000,1.000000,6.000000,0.500000,1.000000
22, test, 2, no_probe, 1, 1, 4, 1, 4, 0.3, 0.7, left, 1, 0.3, 0.4, 0.6, 0.7, 2.2751233000017237, 0, , , 0.000000, 17.000000, 1.000000,3.000000,1.000000,6.000000,0.500000,1.000000
22, test, 2, no_probe, 2, 2, 4, 2, 4, 0.4, 0.7, left, 1, 0.3, 0.4, 0.6, 0.7, 1.9295519000152126, 1, , , 1.000000, 18.000000, 2.000000,3.000000,1.000000,6.000000,0.500000,1.000000
22, test, 2, probe, 3, 1, 3, 1, 3, 0.3, 0.6, left, 1, 0.3, 0.4, 0.6, 0.7, 2.145301599986851, 0, 53.48858642578125, 1.5163050999981351, 1.000000, 18.000000, 3.000000,3.000000,1.000000,6.000000,0.500000,1.000000
22, test, 2, no_probe, 4, 3, 1, 1, 3, 0.6, 0.3, right, 2, 0.3, 0.4, 0.6, 0.7, 1.0888841999985743, 1, , , 2.000000, 19.000000, 1.000000,3.000000,1.000000,6.000000,0.500000,1.000000
22, test, 2, no_probe, 5, 3, 1, 1, 3, 0.6, 0.3, right, 2, 0.3, 0.4, 0.6, 0.7, 0.7898319000087213, 1, , , 3.000000, 20.000000, 2.000000,3.000000,1.000000,6.000000,0.500000,1.000000
22, test, 2, probe, 6, 2, 3, 2, 3, 0.4, 0.6, left, 1, 0.3, 0.4, 0.6, 0.7, 4.4442817000090145, 0, 55.808746337890625, 2.0666426999960095, 3.000000, 20.000000, 3.000000,3.000000,1.000000,6.000000,0.500000,1.000000
22, test, 2, no_probe, 7, 3, 1, 1, 3, 0.6, 0.3, right, 2, 0.3, 0.4, 0.6, 0.7, 0.7650563000061084, 0, , , 3.000000, 20.000000, 1.000000,3.000000,1.000000,6.000000,0.500000,1.000000
22, test, 2, no_probe, 8, 3, 1, 3, 1, 0.6, 0.3, left, 1, 0.3, 0.4, 0.6, 0.7, 3.518595799978357, 0, , , 3.000000, 20.000000, 2.000000,3.000000,1.000000,6.000000,0.500000,1.000000
22, test, 2, probe, 9, 1, 4, 4, 1, 0.3, 0.7, right, 2, 0.3, 0.4, 0.6, 0.7, 1.7604830999916885, 0, 40.5972900390625, 1.433313099987572, 3.000000, 20.000000, 3.000000,3.000000,1.000000,6.000000,0.500000,1.000000
22, test, 2, no_probe, 10, 1, 2, 2, 1, 0.3, 0.4, right, 2, 0.3, 0.4, 0.6, 0.7, 1.2244742999901064, 0, , , 3.000000, 20.000000, 1.000000,2.000000,1.000000,6.000000,0.500000,1.000000
22, test, 2, probe, 11, 2, 4, 2, 4, 0.4, 0.7, left, 1, 0.3, 0.4, 0.6, 0.7, 3.200620899995556, 1, 55.013671875, 0.9999787000124343, 4.000000, 21.000000, 2.000000,2.000000,1.000000,6.000000,0.500000,1.000000
22, test, 2, no_probe, 12, 2, 4, 2, 4, 0.4, 0.7, left, 1, 0.3, 0.4, 0.6, 0.7, 1.1126864000107162, 0, , , 4.000000, 21.000000, 1.000000,3.000000,1.000000,6.000000,0.500000,1.000000
22, test, 2, no_probe, 13, 1, 4, 1, 4, 0.3, 0.7, left, 1, 0.3, 0.4, 0.6, 0.7, 1.4494897999975365, 0, , , 4.000000, 21.000000, 2.000000,3.000000,1.000000,6.000000,0.500000,1.000000
22, test, 2, probe, 14, 3, 2, 2, 3, 0.6, 0.4, right, 2, 0.3, 0.4, 0.6, 0.7, 1.548837000009371, 1, 49.997222900390625, 1.5166349000064656, 5.000000, 22.000000, 3.000000,3.000000,1.000000,6.000000,0.500000,1.000000
22, test, 2, no_probe, 15, 1, 4, 4, 1, 0.3, 0.7, right, 2, 0.3, 0.4, 0.6, 0.7, 1.4101623999886215, 0, , , 5.000000, 22.000000, 1.000000,2.000000,1.000000,6.000000,0.500000,1.000000
22, test, 2, probe, 16, 2, 3, 2, 3, 0.4, 0.6, left, 1, 0.3, 0.4, 0.6, 0.7, 0.9649474000034388, 0, 38.44256591796875, 1.5833604999934323, 5.000000, 22.000000, 2.000000,2.000000,1.000000,6.000000,0.500000,1.000000
22, test, 2, no_probe, 17, 1, 4, 4, 1, 0.3, 0.7, right, 2, 0.3, 0.4, 0.6, 0.7, 1.4143579000083264, 0, , , 5.000000, 22.000000, 1.000000,3.000000,1.000000,6.000000,0.500000,1.000000
22, test, 2, no_probe, 18, 1, 3, 1, 3, 0.3, 0.6, left, 1, 0.3, 0.4, 0.6, 0.7, 0.6078858000109904, 1, , , 6.000000, 23.000000, 2.000000,3.000000,1.000000,6.000000,0.500000,1.000000
22, test, 2, probe, 19, 4, 3, 4, 3, 0.7, 0.6, left, 1, 0.3, 0.4, 0.6, 0.7, 0.7928338999918196, 0, 38.450103759765625, 1.2666643999982625, 6.000000, 23.000000, 3.000000,3.000000,1.000000,6.000000,0.500000,1.000000
22, test, 2, no_probe, 20, 2, 1, 1, 2, 0.4, 0.3, right, 2, 0.3, 0.4, 0.6, 0.7, 2.5943584000051487, 1, , , 7.000000, 24.000000, 1.000000,2.000000,1.000000,6.000000,0.500000,1.000000
22, test, 2, probe, 21, 3, 1, 3, 1, 0.6, 0.3, left, 1, 0.3, 0.4, 0.6, 0.7, 0.8916299999982584, 1, 49.997833251953125, 1.18331270001363, 8.000000, 25.000000, 2.000000,2.000000,1.000000,6.000000,0.500000,1.000000
22, test, 2, no_probe, 22, 3, 1, 3, 1, 0.6, 0.3, left, 1, 0.3, 0.4, 0.6, 0.7, 0.7617876000003889, 1, , , 9.000000, 26.000000, 1.000000,3.000000,1.000000,6.000000,0.500000,1.000000
22, test, 2, no_probe, 23, 4, 2, 2, 4, 0.7, 0.4, right, 2, 0.3, 0.4, 0.6, 0.7, 1.3447328000038397, 1, , , 10.000000, 27.000000, 2.000000,3.000000,1.000000,6.000000,0.500000,1.000000
22, test, 2, probe, 24, 1, 2, 2, 1, 0.3, 0.4, right, 2, 0.3, 0.4, 0.6, 0.7, 1.4588611999934074, 1, 67.61676025390625, 1.3833451000100467, 11.000000, 28.000000, 3.000000,3.000000,1.000000,6.000000,0.500000,1.000000
22, test, 2, no_probe, 25, 1, 3, 1, 3, 0.3, 0.6, left, 1, 0.3, 0.4, 0.6, 0.7, 1.3574781999923289, 1, , , 12.000000, 29.000000, 1.000000,3.000000,1.000000,6.000000,0.500000,1.000000
22, test, 3, no_probe, 1, 4, 1, 4, 1, 0.7, 0.3, left, 1, 0.3, 0.4, 0.6, 0.7, 1.48098559997743, 1, , , 1.000000, 30.000000, 1.000000,3.000000,1.000000,6.000000,0.500000,1.000000
22, test, 3, no_probe, 2, 1, 2, 1, 2, 0.3, 0.4, left, 1, 0.3, 0.4, 0.6, 0.7, 1.5861528999812435, 1, , , 2.000000, 31.000000, 2.000000,3.000000,1.000000,6.000000,0.500000,1.000000
22, test, 3, probe, 3, 1, 2, 1, 2, 0.3, 0.4, left, 1, 0.3, 0.4, 0.6, 0.7, 1.2566762999922503, 0, 39.98675537109375, 1.5662766000023112, 2.000000, 31.000000, 3.000000,3.000000,1.000000,6.000000,0.500000,1.000000
22, test, 3, no_probe, 4, 3, 4, 4, 3, 0.6, 0.7, right, 2, 0.3, 0.4, 0.6, 0.7, 1.9866510000138078, 1, , , 3.000000, 32.000000, 1.000000,3.000000,1.000000,6.000000,0.500000,1.000000
22, test, 3, no_probe, 5, 3, 1, 1, 3, 0.6, 0.3, right, 2, 0.3, 0.4, 0.6, 0.7, 2.1419573000166565, 0, , , 3.000000, 32.000000, 2.000000,3.000000,1.000000,6.000000,0.500000,1.000000
22, test, 3, probe, 6, 3, 4, 3, 4, 0.6, 0.7, left, 1, 0.3, 0.4, 0.6, 0.7, 0.8626696999999695, 0, 35.63775634765625, 1.316613500006497, 3.000000, 32.000000, 3.000000,3.000000,1.000000,6.000000,0.500000,1.000000
22, test, 3, no_probe, 7, 3, 4, 4, 3, 0.6, 0.7, right, 2, 0.3, 0.4, 0.6, 0.7, 1.6056502999854274, 1, , , 4.000000, 33.000000, 1.000000,2.000000,1.000000,6.000000,0.500000,1.000000
22, test, 3, probe, 8, 3, 4, 4, 3, 0.6, 0.7, right, 2, 0.3, 0.4, 0.6, 0.7, 0.5045493999787141, 1, 60.9010009765625, 1.0667111000220757, 5.000000, 34.000000, 2.000000,2.000000,1.000000,6.000000,0.500000,1.000000
22, test, 3, no_probe, 9, 1, 2, 1, 2, 0.3, 0.4, left, 1, 0.3, 0.4, 0.6, 0.7, 2.630089600017527, 0, , , 5.000000, 34.000000, 1.000000,2.000000,1.000000,6.000000,0.500000,1.000000
22, test, 3, probe, 10, 1, 3, 1, 3, 0.3, 0.6, left, 1, 0.3, 0.4, 0.6, 0.7, 2.7606074000068475, 0, 40.08135986328125, 1.3833192999882158, 5.000000, 34.000000, 2.000000,2.000000,1.000000,6.000000,0.500000,1.000000
22, test, 3, no_probe, 11, 2, 1, 2, 1, 0.4, 0.3, left, 1, 0.3, 0.4, 0.6, 0.7, 1.6517835999839008, 0, , , 5.000000, 34.000000, 1.000000,2.000000,1.000000,6.000000,0.500000,1.000000
22, test, 3, probe, 12, 4, 2, 2, 4, 0.7, 0.4, right, 2, 0.3, 0.4, 0.6, 0.7, 1.5546662000124343, 1, 56.97509765625, 1.5666242000006605, 6.000000, 35.000000, 2.000000,2.000000,1.000000,6.000000,0.500000,1.000000
22, test, 3, no_probe, 13, 4, 2, 2, 4, 0.7, 0.4, right, 2, 0.3, 0.4, 0.6, 0.7, 0.9107301000040025, 0, , , 6.000000, 35.000000, 1.000000,2.000000,1.000000,6.000000,0.500000,1.000000
22, test, 3, probe, 14, 4, 2, 4, 2, 0.7, 0.4, left, 1, 0.3, 0.4, 0.6, 0.7, 1.2276239999919198, 1, 36.0059814453125, 1.6666604000201914, 7.000000, 36.000000, 2.000000,2.000000,1.000000,6.000000,0.500000,1.000000
22, test, 3, no_probe, 15, 3, 2, 3, 2, 0.6, 0.4, left, 1, 0.3, 0.4, 0.6, 0.7, 2.50406129998737, 1, , , 8.000000, 37.000000, 1.000000,2.000000,1.000000,6.000000,0.500000,1.000000
22, test, 3, probe, 16, 2, 1, 1, 2, 0.4, 0.3, right, 2, 0.3, 0.4, 0.6, 0.7, 2.373854899982689, 1, 45.7923583984375, 1.1333009999943897, 9.000000, 38.000000, 2.000000,2.000000,1.000000,6.000000,0.500000,1.000000
22, test, 3, no_probe, 17, 4, 2, 2, 4, 0.7, 0.4, right, 2, 0.3, 0.4, 0.6, 0.7, 1.2210922999947798, 1, , , 10.000000, 39.000000, 1.000000,2.000000,1.000000,6.000000,0.500000,1.000000
22, test, 3, probe, 18, 2, 4, 4, 2, 0.4, 0.7, right, 2, 0.3, 0.4, 0.6, 0.7, 0.49543130001984537, 0, 38.19915771484375, 1.033306299999822, 10.000000, 39.000000, 2.000000,2.000000,1.000000,6.000000,0.500000,1.000000
22, test, 3, no_probe, 19, 4, 3, 4, 3, 0.7, 0.6, left, 1, 0.3, 0.4, 0.6, 0.7, 1.60502919999999, 0, , , 10.000000, 39.000000, 1.000000,3.000000,1.000000,6.000000,0.500000,1.000000
22, test, 3, no_probe, 20, 1, 4, 1, 4, 0.3, 0.7, left, 1, 0.3, 0.4, 0.6, 0.7, 1.8591018999868538, 1, , , 11.000000, 40.000000, 2.000000,3.000000,1.000000,6.000000,0.500000,1.000000
22, test, 3, probe, 21, 2, 4, 4, 2, 0.4, 0.7, right, 2, 0.3, 0.4, 0.6, 0.7, 1.0692694000026677, 0, 49.997406005859375, 1.4166289000131655, 11.000000, 40.000000, 3.000000,3.000000,1.000000,6.000000,0.500000,1.000000
22, test, 3, no_probe, 22, 3, 2, 3, 2, 0.6, 0.4, left, 1, 0.3, 0.4, 0.6, 0.7, 1.2513647000014316, 1, , , 12.000000, 41.000000, 1.000000,2.000000,1.000000,6.000000,0.500000,1.000000
22, test, 3, probe, 23, 4, 2, 2, 4, 0.7, 0.4, right, 2, 0.3, 0.4, 0.6, 0.7, 1.6709356000064872, 0, 37.980712890625, 1.1332950000069104, 12.000000, 41.000000, 2.000000,2.000000,1.000000,6.000000,0.500000,1.000000
22, test, 3, no_probe, 24, 1, 3, 1, 3, 0.3, 0.6, left, 1, 0.3, 0.4, 0.6, 0.7, 0.6580849000019953, 0, , , 12.000000, 41.000000, 1.000000,2.000000,1.000000,6.000000,0.500000,1.000000
22, test, 3, probe, 25, 1, 2, 2, 1, 0.3, 0.4, right, 2, 0.3, 0.4, 0.6, 0.7, 0.589530500001274, 0, 49.9979248046875, 1.1333287000015844, 12.000000, 41.000000, 2.000000,2.000000,1.000000,6.000000,0.500000,1.000000
22, test, 4, no_probe, 1, 1, 3, 3, 1, 0.3, 0.6, right, 2, 0.3, 0.4, 0.6, 0.7, 3.3896328000118956, 1, , , 1.000000, 42.000000, 1.000000,2.000000,1.000000,6.000000,0.500000,1.000000
22, test, 4, probe, 2, 1, 3, 3, 1, 0.3, 0.6, right, 2, 0.3, 0.4, 0.6, 0.7, 0.9606180000118911, 1, 73.42718505859375, 1.599961700005224, 2.000000, 43.000000, 2.000000,2.000000,1.000000,6.000000,0.500000,1.000000
22, test, 4, no_probe, 3, 2, 1, 2, 1, 0.4, 0.3, left, 1, 0.3, 0.4, 0.6, 0.7, 1.250051800016081, 1, , , 3.000000, 44.000000, 1.000000,2.000000,1.000000,6.000000,0.500000,1.000000
22, test, 4, probe, 4, 4, 1, 1, 4, 0.7, 0.3, right, 2, 0.3, 0.4, 0.6, 0.7, 1.5615973000240047, 1, 80.71630859375, 2.333303099992918, 4.000000, 45.000000, 2.000000,2.000000,1.000000,6.000000,0.500000,1.000000
22, test, 4, no_probe, 5, 3, 4, 3, 4, 0.6, 0.7, left, 1, 0.3, 0.4, 0.6, 0.7, 1.7379367999965325, 1, , , 5.000000, 46.000000, 1.000000,3.000000,1.000000,6.000000,0.500000,1.000000
22, test, 4, no_probe, 6, 3, 4, 4, 3, 0.6, 0.7, right, 2, 0.3, 0.4, 0.6, 0.7, 1.2901554999989457, 1, , , 6.000000, 47.000000, 2.000000,3.000000,1.000000,6.000000,0.500000,1.000000
22, test, 4, probe, 7, 2, 4, 2, 4, 0.4, 0.7, left, 1, 0.3, 0.4, 0.6, 0.7, 4.283439699996961, 0, 65.60891723632812, 1.6499895000015385, 6.000000, 47.000000, 3.000000,3.000000,1.000000,6.000000,0.500000,1.000000
22, test, 4, no_probe, 8, 1, 4, 4, 1, 0.3, 0.7, right, 2, 0.3, 0.4, 0.6, 0.7, 1.2792583999980707, 0, , , 6.000000, 47.000000, 1.000000,2.000000,1.000000,6.000000,0.500000,1.000000
22, test, 4, probe, 9, 4, 2, 2, 4, 0.7, 0.4, right, 2, 0.3, 0.4, 0.6, 0.7, 2.196885800018208, 1, 65.73126220703125, 1.7999272999877576, 7.000000, 48.000000, 2.000000,2.000000,1.000000,6.000000,0.500000,1.000000
22, test, 4, no_probe, 10, 4, 3, 4, 3, 0.7, 0.6, left, 1, 0.3, 0.4, 0.6, 0.7, 4.260219599993434, 1, , , 8.000000, 49.000000, 1.000000,3.000000,1.000000,6.000000,0.500000,1.000000
22, test, 4, no_probe, 11, 1, 4, 1, 4, 0.3, 0.7, left, 1, 0.3, 0.4, 0.6, 0.7, 1.704262800019933, 1, , , 9.000000, 50.000000, 2.000000,3.000000,1.000000,6.000000,0.500000,1.000000
22, test, 4, probe, 12, 1, 4, 1, 4, 0.3, 0.7, left, 1, 0.3, 0.4, 0.6, 0.7, 0.894303500012029, 1, 80.54791259765625, 1.8832870000042021, 10.000000, 51.000000, 3.000000,3.000000,1.000000,6.000000,0.500000,1.000000
22, test, 4, no_probe, 13, 2, 4, 4, 2, 0.4, 0.7, right, 2, 0.3, 0.4, 0.6, 0.7, 4.0147080999740865, 1, , , 11.000000, 52.000000, 1.000000,3.000000,1.000000,6.000000,0.500000,1.000000
22, test, 4, no_probe, 14, 1, 3, 3, 1, 0.3, 0.6, right, 2, 0.3, 0.4, 0.6, 0.7, 2.2321576999966055, 0, , , 11.000000, 52.000000, 2.000000,3.000000,1.000000,6.000000,0.500000,1.000000
22, test, 4, probe, 15, 3, 1, 3, 1, 0.6, 0.3, left, 1, 0.3, 0.4, 0.6, 0.7, 0.6365129000041634, 0, 35.972808837890625, 1.8999641999835148, 11.000000, 52.000000, 3.000000,3.000000,1.000000,6.000000,0.500000,1.000000
22, test, 4, no_probe, 16, 3, 1, 3, 1, 0.6, 0.3, left, 1, 0.3, 0.4, 0.6, 0.7, 0.8789739000203554, 0, , , 11.000000, 52.000000, 1.000000,3.000000,1.000000,6.000000,0.500000,1.000000
22, test, 4, no_probe, 17, 3, 2, 3, 2, 0.6, 0.4, left, 1, 0.3, 0.4, 0.6, 0.7, 1.4162609000049997, 0, , , 11.000000, 52.000000, 2.000000,3.000000,1.000000,6.000000,0.500000,1.000000
22, test, 4, probe, 18, 2, 3, 3, 2, 0.4, 0.6, right, 2, 0.3, 0.4, 0.6, 0.7, 0.5609698999905959, 1, 61.124176025390625, 0.883377099991776, 12.000000, 53.000000, 3.000000,3.000000,1.000000,6.000000,0.500000,1.000000
22, test, 4, no_probe, 19, 2, 3, 2, 3, 0.4, 0.6, left, 1, 0.3, 0.4, 0.6, 0.7, 0.6233871000004001, 0, , , 12.000000, 53.000000, 1.000000,2.000000,1.000000,6.000000,0.500000,1.000000
22, test, 4, probe, 20, 3, 2, 2, 3, 0.6, 0.4, right, 2, 0.3, 0.4, 0.6, 0.7, 0.6480548999970779, 0, 22.60394287109375, 1.9832860000024084, 12.000000, 53.000000, 2.000000,2.000000,1.000000,6.000000,0.500000,1.000000
22, test, 4, no_probe, 21, 2, 3, 2, 3, 0.4, 0.6, left, 1, 0.3, 0.4, 0.6, 0.7, 0.6238906999933533, 0, , , 12.000000, 53.000000, 1.000000,3.000000,1.000000,6.000000,0.500000,1.000000
22, test, 4, no_probe, 22, 2, 3, 3, 2, 0.4, 0.6, right, 2, 0.3, 0.4, 0.6, 0.7, 0.5673988999915309, 1, , , 13.000000, 54.000000, 2.000000,3.000000,1.000000,6.000000,0.500000,1.000000
22, test, 4, probe, 23, 3, 1, 3, 1, 0.6, 0.3, left, 1, 0.3, 0.4, 0.6, 0.7, 4.770131900004344, 1, 56.83990478515625, 1.1500226000207476, 14.000000, 55.000000, 3.000000,3.000000,1.000000,6.000000,0.500000,1.000000
22, test, 4, no_probe, 24, 1, 2, 1, 2, 0.3, 0.4, left, 1, 0.3, 0.4, 0.6, 0.7, 2.2415061999927275, 0, , , 14.000000, 55.000000, 1.000000,3.000000,1.000000,6.000000,0.500000,1.000000
22, test, 4, no_probe, 25, 4, 3, 4, 3, 0.7, 0.6, left, 1, 0.3, 0.4, 0.6, 0.7, 1.4776502999884542, 1, , , 15.000000, 56.000000, 2.000000,3.000000,1.000000,6.000000,0.500000,1.000000
22, test, 5, no_probe, 1, 2, 1, 2, 1, 0.4, 0.3, left, 1, 0.3, 0.4, 0.6, 0.7, 2.67386430001352, 1, , , 1.000000, 57.000000, 1.000000,2.000000,1.000000,6.000000,0.500000,1.000000
22, test, 5, probe, 2, 3, 4, 3, 4, 0.6, 0.7, left, 1, 0.3, 0.4, 0.6, 0.7, 4.0834964999812655, 1, 66.56906127929688, 1.8166439000051469, 2.000000, 58.000000, 2.000000,2.000000,1.000000,6.000000,0.500000,1.000000
22, test, 5, no_probe, 3, 2, 3, 3, 2, 0.4, 0.6, right, 2, 0.3, 0.4, 0.6, 0.7, 2.5312959000002593, 1, , , 3.000000, 59.000000, 1.000000,2.000000,1.000000,6.000000,0.500000,1.000000
22, test, 5, abort_trial, 4
22, test, 5, probe, 5, 2, 4, 4, 2, 0.4, 0.7, right, 2, 0.3, 0.4, 0.6, 0.7, 1.0284157000132836, 0, 60.7860107421875, 1.933318399998825, 3.000000, 59.000000, 2.000000,2.000000,1.000000,6.000000,0.500000,1.000000
22, test, 5, no_probe, 6, 2, 3, 2, 3, 0.4, 0.6, left, 1, 0.3, 0.4, 0.6, 0.7, 1.3741515000001527, 0, , , 3.000000, 59.000000, 1.000000,2.000000,1.000000,6.000000,0.500000,1.000000
22, test, 5, probe, 7, 2, 1, 2, 1, 0.4, 0.3, left, 1, 0.3, 0.4, 0.6, 0.7, 1.663946400018176, 1, 58.629486083984375, 1.1165843000053428, 4.000000, 60.000000, 2.000000,2.000000,1.000000,6.000000,0.500000,1.000000
22, test, 5, no_probe, 8, 1, 2, 2, 1, 0.3, 0.4, right, 2, 0.3, 0.4, 0.6, 0.7, 1.2734987000003457, 0, , , 4.000000, 60.000000, 1.000000,2.000000,1.000000,6.000000,0.500000,1.000000
22, test, 5, probe, 9, 4, 1, 1, 4, 0.7, 0.3, right, 2, 0.3, 0.4, 0.6, 0.7, 0.9561877000087406, 1, 58.161712646484375, 0.9833356000017375, 5.000000, 61.000000, 2.000000,2.000000,1.000000,6.000000,0.500000,1.000000
22, test, 5, no_probe, 10, 3, 1, 1, 3, 0.6, 0.3, right, 2, 0.3, 0.4, 0.6, 0.7, 1.1711766999796964, 1, , , 6.000000, 62.000000, 1.000000,3.000000,1.000000,6.000000,0.500000,1.000000
22, test, 5, no_probe, 11, 2, 4, 2, 4, 0.4, 0.7, left, 1, 0.3, 0.4, 0.6, 0.7, 1.6252211999963038, 0, , , 6.000000, 62.000000, 2.000000,3.000000,1.000000,6.000000,0.500000,1.000000
22, test, 5, probe, 12, 3, 1, 1, 3, 0.6, 0.3, right, 2, 0.3, 0.4, 0.6, 0.7, 0.6894017000158783, 1, 19.961456298828125, 4.849914499995066, 7.000000, 63.000000, 3.000000,3.000000,1.000000,6.000000,0.500000,1.000000
22, test, 5, no_probe, 13, 3, 4, 4, 3, 0.6, 0.7, right, 2, 0.3, 0.4, 0.6, 0.7, 0.9449449000239838, 1, , , 8.000000, 64.000000, 1.000000,3.000000,1.000000,6.000000,0.500000,1.000000
22, test, 5, no_probe, 14, 3, 1, 1, 3, 0.6, 0.3, right, 2, 0.3, 0.4, 0.6, 0.7, 0.8567395000136457, 1, , , 9.000000, 65.000000, 2.000000,3.000000,1.000000,6.000000,0.500000,1.000000
22, test, 5, probe, 15, 4, 1, 4, 1, 0.7, 0.3, left, 1, 0.3, 0.4, 0.6, 0.7, 0.8125460000010207, 1, 28.70098876953125, 1.816660199983744, 10.000000, 66.000000, 3.000000,3.000000,1.000000,6.000000,0.500000,1.000000
22, test, 5, no_probe, 16, 3, 4, 4, 3, 0.6, 0.7, right, 2, 0.3, 0.4, 0.6, 0.7, 0.4936953999858815, 1, , , 11.000000, 67.000000, 1.000000,3.000000,1.000000,6.000000,0.500000,1.000000
22, test, 5, no_probe, 17, 2, 1, 2, 1, 0.4, 0.3, left, 1, 0.3, 0.4, 0.6, 0.7, 0.5806554000009783, 0, , , 11.000000, 67.000000, 2.000000,3.000000,1.000000,6.000000,0.500000,1.000000
22, test, 5, probe, 18, 1, 2, 2, 1, 0.3, 0.4, right, 2, 0.3, 0.4, 0.6, 0.7, 0.3824958000041079, 0, 19.98565673828125, 1.616616499988595, 11.000000, 67.000000, 3.000000,3.000000,1.000000,6.000000,0.500000,1.000000
22, test, 5, no_probe, 19, 2, 1, 1, 2, 0.4, 0.3, right, 2, 0.3, 0.4, 0.6, 0.7, 0.9629031000076793, 0, , , 11.000000, 67.000000, 1.000000,3.000000,1.000000,6.000000,0.500000,1.000000
22, test, 5, no_probe, 20, 3, 4, 4, 3, 0.6, 0.7, right, 2, 0.3, 0.4, 0.6, 0.7, 3.4935659999900963, 0, , , 11.000000, 67.000000, 2.000000,3.000000,1.000000,6.000000,0.500000,1.000000
22, test, 5, probe, 21, 4, 1, 4, 1, 0.7, 0.3, left, 1, 0.3, 0.4, 0.6, 0.7, 0.44367749997763894, 0, 5.545379638671875, 1.7999950000084937, 11.000000, 67.000000, 3.000000,3.000000,1.000000,6.000000,0.500000,1.000000
22, test, 5, no_probe, 22, 2, 3, 3, 2, 0.4, 0.6, right, 2, 0.3, 0.4, 0.6, 0.7, 0.9304976999992505, 1, , , 12.000000, 68.000000, 1.000000,2.000000,1.000000,6.000000,0.500000,1.000000
22, test, 5, probe, 23, 3, 4, 3, 4, 0.6, 0.7, left, 1, 0.3, 0.4, 0.6, 0.7, 0.530085299978964, 1, 21.275665283203125, 1.633326599985594, 13.000000, 69.000000, 2.000000,2.000000,1.000000,6.000000,0.500000,1.000000
22, test, 5, no_probe, 24, 2, 3, 3, 2, 0.4, 0.6, right, 2, 0.3, 0.4, 0.6, 0.7, 0.9715193999873009, 1, , , 14.000000, 70.000000, 1.000000,3.000000,1.000000,6.000000,0.500000,1.000000
22, test, 5, no_probe, 25, 1, 3, 3, 1, 0.3, 0.6, right, 2, 0.3, 0.4, 0.6, 0.7, 1.0909353999886662, 1, , , 15.000000, 71.000000, 2.000000,3.000000,1.000000,6.000000,0.500000,1.000000
22, test, 6, no_probe, 1, 2, 3, 3, 2, 0.4, 0.6, right, 2, 0.3, 0.4, 0.6, 0.7, 0.8658992999990005, 1, , , 1.000000, 72.000000, 1.000000,2.000000,1.000000,6.000000,0.500000,1.000000
22, test, 6, probe, 2, 4, 1, 1, 4, 0.7, 0.3, right, 2, 0.3, 0.4, 0.6, 0.7, 0.7683035999943968, 1, 39.063629150390625, 1.6166361999930814, 2.000000, 73.000000, 2.000000,2.000000,1.000000,6.000000,0.500000,1.000000
22, test, 6, no_probe, 3, 4, 1, 4, 1, 0.7, 0.3, left, 1, 0.3, 0.4, 0.6, 0.7, 0.7588117999839596, 1, , , 3.000000, 74.000000, 1.000000,3.000000,1.000000,6.000000,0.500000,1.000000
22, test, 6, no_probe, 4, 1, 3, 3, 1, 0.3, 0.6, right, 2, 0.3, 0.4, 0.6, 0.7, 1.2531793999951333, 0, , , 3.000000, 74.000000, 2.000000,3.000000,1.000000,6.000000,0.500000,1.000000
22, test, 6, probe, 5, 3, 1, 3, 1, 0.6, 0.3, left, 1, 0.3, 0.4, 0.6, 0.7, 0.6922834999859333, 1, 29.13494873046875, 1.9333138999936637, 4.000000, 75.000000, 3.000000,3.000000,1.000000,6.000000,0.500000,1.000000
22, test, 6, no_probe, 6, 2, 4, 4, 2, 0.4, 0.7, right, 2, 0.3, 0.4, 0.6, 0.7, 1.9439044000173453, 1, , , 5.000000, 76.000000, 1.000000,3.000000,1.000000,6.000000,0.500000,1.000000
22, test, 6, no_probe, 7, 1, 3, 3, 1, 0.3, 0.6, right, 2, 0.3, 0.4, 0.6, 0.7, 0.9875615000200924, 0, , , 5.000000, 76.000000, 2.000000,3.000000,1.000000,6.000000,0.500000,1.000000
22, test, 6, probe, 8, 4, 1, 4, 1, 0.7, 0.3, left, 1, 0.3, 0.4, 0.6, 0.7, 0.9065382999833673, 1, 39.36163330078125, 1.516632999991998, 6.000000, 77.000000, 3.000000,3.000000,1.000000,6.000000,0.500000,1.000000
22, test, 6, no_probe, 9, 4, 2, 2, 4, 0.7, 0.4, right, 2, 0.3, 0.4, 0.6, 0.7, 2.014447099994868, 1, , , 7.000000, 78.000000, 1.000000,3.000000,1.000000,6.000000,0.500000,1.000000
22, test, 6, no_probe, 10, 2, 3, 2, 3, 0.4, 0.6, left, 1, 0.3, 0.4, 0.6, 0.7, 0.7414584999787621, 1, , , 8.000000, 79.000000, 2.000000,3.000000,1.000000,6.000000,0.500000,1.000000
22, test, 6, probe, 11, 4, 1, 4, 1, 0.7, 0.3, left, 1, 0.3, 0.4, 0.6, 0.7, 0.6977446999808308, 0, 34.92767333984375, 1.116669799986994, 8.000000, 79.000000, 3.000000,3.000000,1.000000,6.000000,0.500000,1.000000
22, test, 6, no_probe, 12, 3, 2, 2, 3, 0.6, 0.4, right, 2, 0.3, 0.4, 0.6, 0.7, 0.5904487000079826, 0, , , 8.000000, 79.000000, 1.000000,3.000000,1.000000,6.000000,0.500000,1.000000
22, test, 6, no_probe, 13, 4, 2, 4, 2, 0.7, 0.4, left, 1, 0.3, 0.4, 0.6, 0.7, 0.886989699996775, 1, , , 9.000000, 80.000000, 2.000000,3.000000,1.000000,6.000000,0.500000,1.000000
22, test, 6, probe, 14, 4, 2, 4, 2, 0.7, 0.4, left, 1, 0.3, 0.4, 0.6, 0.7, 0.5334302000119351, 1, 41.86761474609375, 1.3166201999993064, 10.000000, 81.000000, 3.000000,3.000000,1.000000,6.000000,0.500000,1.000000
22, test, 6, no_probe, 15, 1, 2, 2, 1, 0.3, 0.4, right, 2, 0.3, 0.4, 0.6, 0.7, 1.0043854999821633, 1, , , 11.000000, 82.000000, 1.000000,3.000000,1.000000,6.000000,0.500000,1.000000
22, test, 6, no_probe, 16, 1, 3, 3, 1, 0.3, 0.6, right, 2, 0.3, 0.4, 0.6, 0.7, 0.9140034999873023, 1, , , 12.000000, 83.000000, 2.000000,3.000000,1.000000,6.000000,0.500000,1.000000
22, test, 6, probe, 17, 2, 3, 3, 2, 0.4, 0.6, right, 2, 0.3, 0.4, 0.6, 0.7, 1.1779112000076566, 1, 58.36297607421875, 1.1499650000187103, 13.000000, 84.000000, 3.000000,3.000000,1.000000,6.000000,0.500000,1.000000
22, test, 6, no_probe, 18, 4, 2, 2, 4, 0.7, 0.4, right, 2, 0.3, 0.4, 0.6, 0.7, 0.8157568000024185, 1, , , 14.000000, 85.000000, 1.000000,2.000000,1.000000,6.000000,0.500000,1.000000
22, test, 6, probe, 19, 1, 3, 1, 3, 0.3, 0.6, left, 1, 0.3, 0.4, 0.6, 0.7, 0.6853375000064261, 1, 58.1435546875, 1.4999702000059187, 15.000000, 86.000000, 2.000000,2.000000,1.000000,6.000000,0.500000,1.000000
22, test, 6, no_probe, 20, 3, 2, 2, 3, 0.6, 0.4, right, 2, 0.3, 0.4, 0.6, 0.7, 1.4212306999834254, 1, , , 16.000000, 87.000000, 1.000000,3.000000,1.000000,6.000000,0.500000,1.000000
22, test, 6, no_probe, 21, 4, 3, 4, 3, 0.7, 0.6, left, 1, 0.3, 0.4, 0.6, 0.7, 0.8020399000088219, 1, , , 17.000000, 88.000000, 2.000000,3.000000,1.000000,6.000000,0.500000,1.000000
22, test, 6, probe, 22, 1, 2, 1, 2, 0.3, 0.4, left, 1, 0.3, 0.4, 0.6, 0.7, 1.7167291000077967, 0, 57.247283935546875, 1.38327130000107, 17.000000, 88.000000, 3.000000,3.000000,1.000000,6.000000,0.500000,1.000000
22, test, 6, no_probe, 23, 2, 4, 4, 2, 0.4, 0.7, right, 2, 0.3, 0.4, 0.6, 0.7, 0.4434174000052735, 1, , , 18.000000, 89.000000, 1.000000,2.000000,1.000000,6.000000,0.500000,1.000000
22, test, 6, probe, 24, 4, 1, 1, 4, 0.7, 0.3, right, 2, 0.3, 0.4, 0.6, 0.7, 1.0040505999932066, 0, 41.925689697265625, 1.2166912999819033, 18.000000, 89.000000, 2.000000,2.000000,1.000000,6.000000,0.500000,1.000000
22, test, 6, no_probe, 25, 4, 3, 4, 3, 0.7, 0.6, left, 1, 0.3, 0.4, 0.6, 0.7, 0.7745944999915082, 1, , , 19.000000, 90.000000, 1.000000,3.000000,1.000000,6.000000,0.500000,1.000000
22, test, 7, no_probe, 1, 1, 3, 3, 1, 0.3, 0.6, right, 2, 0.3, 0.4, 0.6, 0.7, 1.3654729999834672, 0, , , 0.000000, 90.000000, 1.000000,2.000000,1.000000,6.000000,0.500000,1.000000
22, test, 7, probe, 2, 2, 3, 2, 3, 0.4, 0.6, left, 1, 0.3, 0.4, 0.6, 0.7, 1.143463199987309, 0, 51.27587890625, 2.349935000005644, 0.000000, 90.000000, 2.000000,2.000000,1.000000,6.000000,0.500000,1.000000
22, test, 7, no_probe, 3, 3, 1, 1, 3, 0.6, 0.3, right, 2, 0.3, 0.4, 0.6, 0.7, 0.44056330001330934, 1, , , 1.000000, 91.000000, 1.000000,2.000000,1.000000,6.000000,0.500000,1.000000
22, test, 7, probe, 4, 3, 2, 3, 2, 0.6, 0.4, left, 1, 0.3, 0.4, 0.6, 0.7, 0.5806049999955576, 1, 55.736663818359375, 1.1666797999932896, 2.000000, 92.000000, 2.000000,2.000000,1.000000,6.000000,0.500000,1.000000
22, test, 7, no_probe, 5, 2, 1, 2, 1, 0.4, 0.3, left, 1, 0.3, 0.4, 0.6, 0.7, 0.978475999989314, 0, , , 2.000000, 92.000000, 1.000000,3.000000,1.000000,6.000000,0.500000,1.000000
22, test, 7, no_probe, 6, 3, 4, 4, 3, 0.6, 0.7, right, 2, 0.3, 0.4, 0.6, 0.7, 0.7120553000131622, 0, , , 2.000000, 92.000000, 2.000000,3.000000,1.000000,6.000000,0.500000,1.000000
22, test, 7, probe, 7, 2, 1, 1, 2, 0.4, 0.3, right, 2, 0.3, 0.4, 0.6, 0.7, 1.5250604999891948, 0, 40.129364013671875, 1.3666590999928303, 2.000000, 92.000000, 3.000000,3.000000,1.000000,6.000000,0.500000,1.000000
22, test, 7, no_probe, 8, 3, 2, 3, 2, 0.6, 0.4, left, 1, 0.3, 0.4, 0.6, 0.7, 1.0744319000223186, 1, , , 3.000000, 93.000000, 1.000000,3.000000,1.000000,6.000000,0.500000,1.000000
22, test, 7, no_probe, 9, 1, 4, 4, 1, 0.3, 0.7, right, 2, 0.3, 0.4, 0.6, 0.7, 1.597663199994713, 1, , , 4.000000, 94.000000, 2.000000,3.000000,1.000000,6.000000,0.500000,1.000000
22, test, 7, probe, 10, 4, 2, 2, 4, 0.7, 0.4, right, 2, 0.3, 0.4, 0.6, 0.7, 0.8294500000192784, 1, 55.56011962890625, 1.0166852000111248, 5.000000, 95.000000, 3.000000,3.000000,1.000000,6.000000,0.500000,1.000000
22, test, 7, no_probe, 11, 3, 1, 1, 3, 0.6, 0.3, right, 2, 0.3, 0.4, 0.6, 0.7, 1.2283368999778759, 1, , , 6.000000, 96.000000, 1.000000,2.000000,1.000000,6.000000,0.500000,1.000000
22, test, 7, probe, 12, 4, 2, 4, 2, 0.7, 0.4, left, 1, 0.3, 0.4, 0.6, 0.7, 1.1605036999972071, 1, 67.50149536132812, 1.1666792000178248, 7.000000, 97.000000, 2.000000,2.000000,1.000000,6.000000,0.500000,1.000000
22, test, 7, no_probe, 13, 1, 2, 1, 2, 0.3, 0.4, left, 1, 0.3, 0.4, 0.6, 0.7, 1.2528204999980517, 0, , , 7.000000, 97.000000, 1.000000,3.000000,1.000000,6.000000,0.500000,1.000000
22, test, 7, no_probe, 14, 3, 1, 3, 1, 0.6, 0.3, left, 1, 0.3, 0.4, 0.6, 0.7, 1.5110687999986112, 0, , , 7.000000, 97.000000, 2.000000,3.000000,1.000000,6.000000,0.500000,1.000000
22, test, 7, probe, 15, 1, 2, 2, 1, 0.3, 0.4, right, 2, 0.3, 0.4, 0.6, 0.7, 0.9733145000063814, 1, 45.945220947265625, 1.7832787999941502, 8.000000, 98.000000, 3.000000,3.000000,1.000000,6.000000,0.500000,1.000000
22, test, 7, no_probe, 16, 4, 1, 1, 4, 0.7, 0.3, right, 2, 0.3, 0.4, 0.6, 0.7, 2.6140459000016563, 1, , , 9.000000, 99.000000, 1.000000,3.000000,1.000000,6.000000,0.500000,1.000000
22, test, 7, no_probe, 17, 1, 2, 1, 2, 0.3, 0.4, left, 1, 0.3, 0.4, 0.6, 0.7, 0.9585655000119004, 0, , , 9.000000, 99.000000, 2.000000,3.000000,1.000000,6.000000,0.500000,1.000000
22, test, 7, probe, 18, 3, 4, 4, 3, 0.6, 0.7, right, 2, 0.3, 0.4, 0.6, 0.7, 1.2585376999923028, 1, 55.46575927734375, 1.2500060000165831, 10.000000, 100.000000, 3.000000,3.000000,1.000000,6.000000,0.500000,1.000000
22, test, 7, no_probe, 19, 4, 2, 4, 2, 0.7, 0.4, left, 1, 0.3, 0.4, 0.6, 0.7, 1.05033219998586, 1, , , 11.000000, 101.000000, 1.000000,2.000000,1.000000,6.000000,0.500000,1.000000
22, test, 7, probe, 20, 3, 2, 3, 2, 0.6, 0.4, left, 1, 0.3, 0.4, 0.6, 0.7, 1.1269016999867745, 1, 56.03778076171875, 0.9832830000086688, 12.000000, 102.000000, 2.000000,2.000000,1.000000,6.000000,0.500000,1.000000
22, test, 7, no_probe, 21, 3, 2, 2, 3, 0.6, 0.4, right, 2, 0.3, 0.4, 0.6, 0.7, 1.166540400008671, 1, , , 13.000000, 103.000000, 1.000000,2.000000,1.000000,6.000000,0.500000,1.000000
22, test, 7, probe, 22, 1, 3, 3, 1, 0.3, 0.6, right, 2, 0.3, 0.4, 0.6, 0.7, 1.5857993999961764, 0, 63.58074951171875, 2.0499935999978334, 13.000000, 103.000000, 2.000000,2.000000,1.000000,6.000000,0.500000,1.000000
22, test, 7, no_probe, 23, 1, 2, 2, 1, 0.3, 0.4, right, 2, 0.3, 0.4, 0.6, 0.7, 0.8803984000114724, 1, , , 14.000000, 104.000000, 1.000000,2.000000,1.000000,6.000000,0.500000,1.000000
22, test, 7, probe, 24, 1, 2, 1, 2, 0.3, 0.4, left, 1, 0.3, 0.4, 0.6, 0.7, 0.8289776000019629, 0, 40.2506103515625, 1.199987100000726, 14.000000, 104.000000, 2.000000,2.000000,1.000000,6.000000,0.500000,1.000000
22, test, 7, no_probe, 25, 1, 2, 2, 1, 0.3, 0.4, right, 2, 0.3, 0.4, 0.6, 0.7, 1.0168987000070047, 0, , , 14.000000, 104.000000, 1.000000,2.000000,1.000000,6.000000,0.500000,1.000000
22, test, 8, no_probe, 1, 1, 3, 3, 1, 0.3, 0.6, right, 2, 0.3, 0.4, 0.6, 0.7, 1.2418569999863394, 0, , , 0.000000, 104.000000, 1.000000,3.000000,1.000000,6.000000,0.500000,1.000000
22, test, 8, no_probe, 2, 3, 2, 2, 3, 0.6, 0.4, right, 2, 0.3, 0.4, 0.6, 0.7, 1.2172248999995645, 0, , , 0.000000, 104.000000, 2.000000,3.000000,1.000000,6.000000,0.500000,1.000000
22, test, 8, probe, 3, 1, 4, 1, 4, 0.3, 0.7, left, 1, 0.3, 0.4, 0.6, 0.7, 2.2871050000248943, 0, 39.92626953125, 1.4162578000104986, 0.000000, 104.000000, 3.000000,3.000000,1.000000,6.000000,0.500000,1.000000
22, test, 8, no_probe, 4, 2, 4, 2, 4, 0.4, 0.7, left, 1, 0.3, 0.4, 0.6, 0.7, 0.9755234000040218, 1, , , 1.000000, 105.000000, 1.000000,2.000000,1.000000,6.000000,0.500000,1.000000
22, test, 8, probe, 5, 1, 4, 4, 1, 0.3, 0.7, right, 2, 0.3, 0.4, 0.6, 0.7, 1.3424603999883402, 1, 55.249542236328125, 1.2666424000053667, 2.000000, 106.000000, 2.000000,2.000000,1.000000,6.000000,0.500000,1.000000
22, test, 8, no_probe, 6, 1, 3, 1, 3, 0.3, 0.6, left, 1, 0.3, 0.4, 0.6, 0.7, 1.0221502000058535, 0, , , 2.000000, 106.000000, 1.000000,3.000000,1.000000,6.000000,0.500000,1.000000
22, test, 8, no_probe, 7, 1, 3, 1, 3, 0.3, 0.6, left, 1, 0.3, 0.4, 0.6, 0.7, 0.5821643999952357, 0, , , 2.000000, 106.000000, 2.000000,3.000000,1.000000,6.000000,0.500000,1.000000
22, test, 8, probe, 8, 2, 3, 3, 2, 0.4, 0.6, right, 2, 0.3, 0.4, 0.6, 0.7, 0.7162198000005446, 0, 40.779266357421875, 1.1333311000198592, 2.000000, 106.000000, 3.000000,3.000000,1.000000,6.000000,0.500000,1.000000
22, test, 8, no_probe, 9, 1, 2, 1, 2, 0.3, 0.4, left, 1, 0.3, 0.4, 0.6, 0.7, 0.6753831999958493, 0, , , 2.000000, 106.000000, 1.000000,2.000000,1.000000,6.000000,0.500000,1.000000
22, test, 8, probe, 10, 3, 4, 4, 3, 0.6, 0.7, right, 2, 0.3, 0.4, 0.6, 0.7, 0.532946700026514, 1, 43.44769287109375, 1.283366699994076, 3.000000, 107.000000, 2.000000,2.000000,1.000000,6.000000,0.500000,1.000000
22, test, 8, no_probe, 11, 2, 4, 4, 2, 0.4, 0.7, right, 2, 0.3, 0.4, 0.6, 0.7, 0.5129976000171155, 0, , , 3.000000, 107.000000, 1.000000,2.000000,1.000000,6.000000,0.500000,1.000000
22, test, 8, probe, 12, 2, 4, 4, 2, 0.4, 0.7, right, 2, 0.3, 0.4, 0.6, 0.7, 0.5010075000172947, 0, 42.2506103515625, 0.9499834000016563, 3.000000, 107.000000, 2.000000,2.000000,1.000000,6.000000,0.500000,1.000000
22, test, 8, no_probe, 13, 2, 3, 2, 3, 0.4, 0.6, left, 1, 0.3, 0.4, 0.6, 0.7, 0.5839371999900322, 1, , , 4.000000, 108.000000, 1.000000,3.000000,1.000000,6.000000,0.500000,1.000000
22, test, 8, no_probe, 14, 4, 1, 4, 1, 0.7, 0.3, left, 1, 0.3, 0.4, 0.6, 0.7, 1.0685433000035118, 0, , , 4.000000, 108.000000, 2.000000,3.000000,1.000000,6.000000,0.500000,1.000000
22, test, 8, probe, 15, 3, 1, 1, 3, 0.6, 0.3, right, 2, 0.3, 0.4, 0.6, 0.7, 0.9367716999840923, 0, 31.900970458984375, 1.1166544000152498, 4.000000, 108.000000, 3.000000,3.000000,1.000000,6.000000,0.500000,1.000000
22, test, 8, no_probe, 16, 2, 3, 3, 2, 0.4, 0.6, right, 2, 0.3, 0.4, 0.6, 0.7, 0.6615755000093486, 1, , , 5.000000, 109.000000, 1.000000,2.000000,1.000000,6.000000,0.500000,1.000000
22, test, 8, probe, 17, 2, 3, 2, 3, 0.4, 0.6, left, 1, 0.3, 0.4, 0.6, 0.7, 1.068794600025285, 0, 33.23590087890625, 2.116618100000778, 5.000000, 109.000000, 2.000000,2.000000,1.000000,6.000000,0.500000,1.000000
22, test, 8, no_probe, 18, 3, 1, 1, 3, 0.6, 0.3, right, 2, 0.3, 0.4, 0.6, 0.7, 0.7819317000103183, 0, , , 5.000000, 109.000000, 1.000000,3.000000,1.000000,6.000000,0.500000,1.000000
22, test, 8, no_probe, 19, 2, 1, 1, 2, 0.4, 0.3, right, 2, 0.3, 0.4, 0.6, 0.7, 0.8564519000065047, 1, , , 6.000000, 110.000000, 2.000000,3.000000,1.000000,6.000000,0.500000,1.000000
22, test, 8, probe, 20, 4, 1, 1, 4, 0.7, 0.3, right, 2, 0.3, 0.4, 0.6, 0.7, 0.5947706000006292, 1, 58.14019775390625, 1.1833650000044145, 7.000000, 111.000000, 3.000000,3.000000,1.000000,6.000000,0.500000,1.000000
22, test, 8, no_probe, 21, 3, 1, 1, 3, 0.6, 0.3, right, 2, 0.3, 0.4, 0.6, 0.7, 0.7431857000046875, 1, , , 8.000000, 112.000000, 1.000000,2.000000,1.000000,6.000000,0.500000,1.000000
22, test, 8, probe, 22, 2, 3, 3, 2, 0.4, 0.6, right, 2, 0.3, 0.4, 0.6, 0.7, 0.45619430000078864, 1, 42.90447998046875, 0.949947399989469, 9.000000, 113.000000, 2.000000,2.000000,1.000000,6.000000,0.500000,1.000000
22, test, 8, no_probe, 23, 4, 1, 4, 1, 0.7, 0.3, left, 1, 0.3, 0.4, 0.6, 0.7, 0.851533200009726, 1, , , 10.000000, 114.000000, 1.000000,3.000000,1.000000,6.000000,0.500000,1.000000
22, test, 8, no_probe, 24, 2, 1, 1, 2, 0.4, 0.3, right, 2, 0.3, 0.4, 0.6, 0.7, 0.6874820000084583, 0, , , 10.000000, 114.000000, 2.000000,3.000000,1.000000,6.000000,0.500000,1.000000
22, test, 8, probe, 25, 1, 2, 1, 2, 0.3, 0.4, left, 1, 0.3, 0.4, 0.6, 0.7, 0.5008105000015348, 0, 43.637725830078125, 1.2666285000159405, 10.000000, 114.000000, 3.000000,3.000000,1.000000,6.000000,0.500000,1.000000
