subject, block_type, block, thought probe, trial, chosen, unchosen, offer_left_image, offer_right_image, exp_value_chosen, exp_value_unchosen, choice_location, choice_key, exp_value1, exp_value2, exp_value3, exp_value4, RT, reward, vas, RT_vas, coins_per_block, coins_per_task, count_to_prob, ntrial_to_prob, ITI_duration,RT_deadline,choice_feedback_duration,outcome_duration
30, test, 1, no_probe, 1, 1, 2, 1, 2, 0.3, 0.4, left, 1, 0.3, 0.4, 0.6, 0.7, 0.6738353000255302, 0, , , 0.000000, 0.000000, 1.000000,3.000000,1.000000,6.000000,0.500000,1.000000
30, test, 1, no_probe, 2, 3, 1, 1, 3, 0.6, 0.3, right, 2, 0.3, 0.4, 0.6, 0.7, 0.6068019999656826, 1, , , 1.000000, 1.000000, 2.000000,3.000000,1.000000,6.000000,0.500000,1.000000
30, test, 1, probe, 3, 3, 2, 3, 2, 0.6, 0.4, left, 1, 0.3, 0.4, 0.6, 0.7, 0.6785516999661922, 0, 99.99905395507812, 5.832996599958278, 1.000000, 1.000000, 3.000000,3.000000,1.000000,6.000000,0.500000,1.000000
30, test, 1, no_probe, 4, 4, 2, 2, 4, 0.7, 0.4, right, 2, 0.3, 0.4, 0.6, 0.7, 0.547233699937351, 1, , , 2.000000, 2.000000, 1.000000,2.000000,1.000000,6.000000,0.500000,1.000000
30, test, 1, probe, 5, 1, 3, 3, 1, 0.3, 0.6, right, 2, 0.3, 0.4, 0.6, 0.7, 0.603566899895668, 0, 99.99835205078125, 4.316600600024685, 2.000000, 2.000000, 2.000000,2.000000,1.000000,6.000000,0.500000,1.000000
30, test, 1, no_probe, 6, 1, 3, 3, 1, 0.3, 0.6, right, 2, 0.3, 0.4, 0.6, 0.7, 0.4917585999937728, 1, , , 3.000000, 3.000000, 1.000000,2.000000,1.000000,6.000000,0.500000,1.000000
30, test, 1, no_probe, 1, 3, 2, 2, 3, 0.6, 0.4, right, 2, 0.3, 0.4, 0.6, 0.7, 0.45046219998039305, 0, , , 0.000000, 3.000000, 1.000000,2.000000,1.000000,6.000000,0.500000,1.000000
30, test, 1, probe, 2, 4, 1, 4, 1, 0.7, 0.3, left, 1, 0.3, 0.4, 0.6, 0.7, 0.781821500044316, 1, 99.998046875, 3.249977499945089, 1.000000, 4.000000, 2.000000,2.000000,1.000000,6.000000,0.500000,1.000000
30, test, 1, no_probe, 3, 2, 3, 2, 3, 0.4, 0.6, left, 1, 0.3, 0.4, 0.6, 0.7, 0.5485804000636563, 1, , , 2.000000, 5.000000, 1.000000,2.000000,1.000000,6.000000,0.500000,1.000000
30, test, 1, probe, 4, 2, 3, 2, 3, 0.4, 0.6, left, 1, 0.3, 0.4, 0.6, 0.7, 0.6428679000819102, 1, 94.427001953125, 4.099933600053191, 3.000000, 6.000000, 2.000000,2.000000,1.000000,6.000000,0.500000,1.000000
30, test, 1, no_probe, 5, 1, 3, 1, 3, 0.3, 0.6, left, 1, 0.3, 0.4, 0.6, 0.7, 0.593949000001885, 0, , , 3.000000, 6.000000, 1.000000,2.000000,1.000000,6.000000,0.500000,1.000000
30, test, 1, probe, 6, 1, 3, 3, 1, 0.3, 0.6, right, 2, 0.3, 0.4, 0.6, 0.7, 0.7677607000805438, 0, 94.7393798828125, 4.58327239996288, 3.000000, 6.000000, 2.000000,2.000000,1.000000,6.000000,0.500000,1.000000
30, test, 1, no_probe, 7, 2, 3, 2, 3, 0.4, 0.6, left, 1, 0.3, 0.4, 0.6, 0.7, 0.5019445999059826, 1, , , 4.000000, 7.000000, 1.000000,2.000000,1.000000,6.000000,0.500000,1.000000
30, test, 1, probe, 8, 4, 1, 1, 4, 0.7, 0.3, right, 2, 0.3, 0.4, 0.6, 0.7, 0.7761787000345066, 1, 93.7432861328125, 4.083249699906446, 5.000000, 8.000000, 2.000000,2.000000,1.000000,6.000000,0.500000,1.000000
30, test, 1, no_probe, 9, 2, 4, 4, 2, 0.4, 0.7, right, 2, 0.3, 0.4, 0.6, 0.7, 0.5013799000298604, 0, , , 5.000000, 8.000000, 1.000000,2.000000,1.000000,6.000000,0.500000,1.000000
30, test, 1, probe, 10, 2, 3, 3, 2, 0.4, 0.6, right, 2, 0.3, 0.4, 0.6, 0.7, 0.6440000999718904, 0, 93.54669189453125, 2.683297000010498, 5.000000, 8.000000, 2.000000,2.000000,1.000000,6.000000,0.500000,1.000000
30, test, 1, no_probe, 11, 3, 2, 2, 3, 0.6, 0.4, right, 2, 0.3, 0.4, 0.6, 0.7, 0.5676979999989271, 1, , , 6.000000, 9.000000, 1.000000,3.000000,1.000000,6.000000,0.500000,1.000000
30, test, 1, no_probe, 12, 1, 3, 1, 3, 0.3, 0.6, left, 1, 0.3, 0.4, 0.6, 0.7, 0.8607959999935701, 1, , , 7.000000, 10.000000, 2.000000,3.000000,1.000000,6.000000,0.500000,1.000000
30, test, 1, probe, 13, 3, 2, 2, 3, 0.6, 0.4, right, 2, 0.3, 0.4, 0.6, 0.7, 0.6208989999722689, 1, 93.850341796875, 2.749932699953206, 8.000000, 11.000000, 3.000000,3.000000,1.000000,6.000000,0.500000,1.000000
30, test, 1, no_probe, 14, 4, 2, 4, 2, 0.7, 0.4, left, 1, 0.3, 0.4, 0.6, 0.7, 0.7096485999645665, 1, , , 9.000000, 12.000000, 1.000000,3.000000,1.000000,6.000000,0.500000,1.000000
30, test, 1, no_probe, 15, 3, 2, 2, 3, 0.6, 0.4, right, 2, 0.3, 0.4, 0.6, 0.7, 0.5882940000155941, 0, , , 9.000000, 12.000000, 2.000000,3.000000,1.000000,6.000000,0.500000,1.000000
30, test, 1, probe, 16, 3, 4, 3, 4, 0.6, 0.7, left, 1, 0.3, 0.4, 0.6, 0.7, 0.8850177000276744, 0, 91.71102905273438, 3.4833306000800803, 9.000000, 12.000000, 3.000000,3.000000,1.000000,6.000000,0.500000,1.000000
30, test, 1, no_probe, 17, 2, 3, 3, 2, 0.4, 0.6, right, 2, 0.3, 0.4, 0.6, 0.7, 0.8197827000403777, 0, , , 9.000000, 12.000000, 1.000000,2.000000,1.000000,6.000000,0.500000,1.000000
30, test, 1, probe, 18, 1, 3, 3, 1, 0.3, 0.6, right, 2, 0.3, 0.4, 0.6, 0.7, 0.9552038999972865, 0, 88.31063842773438, 5.316572999930941, 9.000000, 12.000000, 2.000000,2.000000,1.000000,6.000000,0.500000,1.000000
30, test, 1, no_probe, 19, 3, 2, 2, 3, 0.6, 0.4, right, 2, 0.3, 0.4, 0.6, 0.7, 0.6167414999799803, 1, , , 10.000000, 13.000000, 1.000000,2.000000,1.000000,6.000000,0.500000,1.000000
30, test, 1, probe, 20, 1, 3, 3, 1, 0.3, 0.6, right, 2, 0.3, 0.4, 0.6, 0.7, 0.8669521999545395, 1, 95.5206298828125, 3.216654899995774, 11.000000, 14.000000, 2.000000,2.000000,1.000000,6.000000,0.500000,1.000000
30, test, 1, no_probe, 21, 1, 3, 1, 3, 0.3, 0.6, left, 1, 0.3, 0.4, 0.6, 0.7, 0.7195633000228554, 0, , , 11.000000, 14.000000, 1.000000,2.000000,1.000000,6.000000,0.500000,1.000000
30, test, 1, probe, 22, 2, 3, 3, 2, 0.4, 0.6, right, 2, 0.3, 0.4, 0.6, 0.7, 0.699872300028801, 1, 92.20797729492188, 3.8166503999382257, 12.000000, 15.000000, 2.000000,2.000000,1.000000,6.000000,0.500000,1.000000
30, test, 1, no_probe, 23, 2, 1, 1, 2, 0.4, 0.3, right, 2, 0.3, 0.4, 0.6, 0.7, 0.5474703999934718, 0, , , 12.000000, 15.000000, 1.000000,3.000000,1.000000,6.000000,0.500000,1.000000
30, test, 1, no_probe, 24, 3, 2, 2, 3, 0.6, 0.4, right, 2, 0.3, 0.4, 0.6, 0.7, 0.6065074999351054, 1, , , 13.000000, 16.000000, 2.000000,3.000000,1.000000,6.000000,0.500000,1.000000
30, test, 1, probe, 25, 4, 2, 2, 4, 0.7, 0.4, right, 2, 0.3, 0.4, 0.6, 0.7, 0.615682499948889, 0, 86.64947509765625, 3.616651000105776, 13.000000, 16.000000, 3.000000,3.000000,1.000000,6.000000,0.500000,1.000000
30, test, 2, no_probe, 1, 2, 3, 3, 2, 0.4, 0.6, right, 2, 0.3, 0.4, 0.6, 0.7, 0.6308854999952018, 1, , , 1.000000, 17.000000, 1.000000,3.000000,1.000000,6.000000,0.500000,1.000000
30, test, 2, no_probe, 2, 4, 3, 3, 4, 0.7, 0.6, right, 2, 0.3, 0.4, 0.6, 0.7, 0.5785818999866024, 1, , , 2.000000, 18.000000, 2.000000,3.000000,1.000000,6.000000,0.500000,1.000000
30, test, 2, probe, 3, 1, 3, 1, 3, 0.3, 0.6, left, 1, 0.3, 0.4, 0.6, 0.7, 0.5175993000157177, 0, 93.86224365234375, 3.199976300005801, 2.000000, 18.000000, 3.000000,3.000000,1.000000,6.000000,0.500000,1.000000
30, test, 2, no_probe, 4, 3, 1, 1, 3, 0.6, 0.3, right, 2, 0.3, 0.4, 0.6, 0.7, 0.4210668000159785, 1, , , 3.000000, 19.000000, 1.000000,2.000000,1.000000,6.000000,0.500000,1.000000
30, test, 2, probe, 5, 4, 3, 3, 4, 0.7, 0.6, right, 2, 0.3, 0.4, 0.6, 0.7, 0.7424063999205828, 1, 93.47720336914062, 2.383257200010121, 4.000000, 20.000000, 2.000000,2.000000,1.000000,6.000000,0.500000,1.000000
30, test, 2, no_probe, 6, 2, 4, 4, 2, 0.4, 0.7, right, 2, 0.3, 0.4, 0.6, 0.7, 0.4847130000125617, 1, , , 5.000000, 21.000000, 1.000000,3.000000,1.000000,6.000000,0.500000,1.000000
30, test, 2, no_probe, 7, 3, 4, 3, 4, 0.6, 0.7, left, 1, 0.3, 0.4, 0.6, 0.7, 0.5435834999661893, 1, , , 6.000000, 22.000000, 2.000000,3.000000,1.000000,6.000000,0.500000,1.000000
30, test, 2, probe, 8, 2, 3, 2, 3, 0.4, 0.6, left, 1, 0.3, 0.4, 0.6, 0.7, 0.9151075999252498, 0, 92.92807006835938, 1.9833472999744117, 6.000000, 22.000000, 3.000000,3.000000,1.000000,6.000000,0.500000,1.000000
30, test, 2, no_probe, 9, 1, 2, 1, 2, 0.3, 0.4, left, 1, 0.3, 0.4, 0.6, 0.7, 0.71429149992764, 1, , , 7.000000, 23.000000, 1.000000,2.000000,1.000000,6.000000,0.500000,1.000000
30, test, 2, probe, 10, 3, 4, 3, 4, 0.6, 0.7, left, 1, 0.3, 0.4, 0.6, 0.7, 0.8629364999942482, 1, 98.1553955078125, 4.583234200021252, 8.000000, 24.000000, 2.000000,2.000000,1.000000,6.000000,0.500000,1.000000
30, test, 2, no_probe, 11, 2, 4, 2, 4, 0.4, 0.7, left, 1, 0.3, 0.4, 0.6, 0.7, 0.5503683000570163, 1, , , 9.000000, 25.000000, 1.000000,3.000000,1.000000,6.000000,0.500000,1.000000
30, test, 2, no_probe, 12, 1, 3, 1, 3, 0.3, 0.6, left, 1, 0.3, 0.4, 0.6, 0.7, 1.0963073999155313, 0, , , 9.000000, 25.000000, 2.000000,3.000000,1.000000,6.000000,0.500000,1.000000
30, test, 2, probe, 13, 2, 3, 2, 3, 0.4, 0.6, left, 1, 0.3, 0.4, 0.6, 0.7, 0.727808199939318, 0, 95.70651245117188, 2.299976299982518, 9.000000, 25.000000, 3.000000,3.000000,1.000000,6.000000,0.500000,1.000000
30, test, 2, no_probe, 14, 1, 3, 3, 1, 0.3, 0.6, right, 2, 0.3, 0.4, 0.6, 0.7, 0.5093918000347912, 0, , , 9.000000, 25.000000, 1.000000,3.000000,1.000000,6.000000,0.500000,1.000000
30, test, 2, no_probe, 15, 2, 3, 3, 2, 0.4, 0.6, right, 2, 0.3, 0.4, 0.6, 0.7, 1.0069888000143692, 0, , , 9.000000, 25.000000, 2.000000,3.000000,1.000000,6.000000,0.500000,1.000000
30, test, 2, probe, 16, 3, 1, 3, 1, 0.6, 0.3, left, 1, 0.3, 0.4, 0.6, 0.7, 0.8127207000507042, 1, 88.64767456054688, 2.5999549000989646, 10.000000, 26.000000, 3.000000,3.000000,1.000000,6.000000,0.500000,1.000000
30, test, 2, no_probe, 17, 2, 3, 3, 2, 0.4, 0.6, right, 2, 0.3, 0.4, 0.6, 0.7, 0.8076883000321686, 1, , , 11.000000, 27.000000, 1.000000,3.000000,1.000000,6.000000,0.500000,1.000000
30, test, 2, no_probe, 18, 4, 1, 1, 4, 0.7, 0.3, right, 2, 0.3, 0.4, 0.6, 0.7, 0.8863373000640422, 0, , , 11.000000, 27.000000, 2.000000,3.000000,1.000000,6.000000,0.500000,1.000000
30, test, 2, probe, 19, 1, 4, 4, 1, 0.3, 0.7, right, 2, 0.3, 0.4, 0.6, 0.7, 0.6522116999840364, 0, 91.28924560546875, 2.6332951000658795, 11.000000, 27.000000, 3.000000,3.000000,1.000000,6.000000,0.500000,1.000000
30, test, 2, no_probe, 20, 3, 1, 1, 3, 0.6, 0.3, right, 2, 0.3, 0.4, 0.6, 0.7, 0.8557923999615014, 0, , , 11.000000, 27.000000, 1.000000,2.000000,1.000000,6.000000,0.500000,1.000000
30, test, 2, probe, 21, 3, 2, 2, 3, 0.6, 0.4, right, 2, 0.3, 0.4, 0.6, 0.7, 0.963846099912189, 1, 84.77642822265625, 2.9333266000030562, 12.000000, 28.000000, 2.000000,2.000000,1.000000,6.000000,0.500000,1.000000
30, test, 2, no_probe, 22, 4, 3, 3, 4, 0.7, 0.6, right, 2, 0.3, 0.4, 0.6, 0.7, 0.811051799915731, 1, , , 13.000000, 29.000000, 1.000000,3.000000,1.000000,6.000000,0.500000,1.000000
30, test, 2, no_probe, 23, 1, 3, 1, 3, 0.3, 0.6, left, 1, 0.3, 0.4, 0.6, 0.7, 0.8615025000181049, 1, , , 14.000000, 30.000000, 2.000000,3.000000,1.000000,6.000000,0.500000,1.000000
30, test, 2, probe, 24, 2, 4, 2, 4, 0.4, 0.7, left, 1, 0.3, 0.4, 0.6, 0.7, 0.7594512000214309, 1, 95.862548828125, 5.083287599962205, 15.000000, 31.000000, 3.000000,3.000000,1.000000,6.000000,0.500000,1.000000
30, test, 2, no_probe, 25, 3, 4, 3, 4, 0.6, 0.7, left, 1, 0.3, 0.4, 0.6, 0.7, 0.7581327999942005, 1, , , 16.000000, 32.000000, 1.000000,3.000000,1.000000,6.000000,0.500000,1.000000
30, test, 3, no_probe, 1, 4, 2, 2, 4, 0.7, 0.4, right, 2, 0.3, 0.4, 0.6, 0.7, 0.9619938000105321, 0, , , 0.000000, 32.000000, 1.000000,3.000000,1.000000,6.000000,0.500000,1.000000
30, test, 3, no_probe, 2, 4, 1, 1, 4, 0.7, 0.3, right, 2, 0.3, 0.4, 0.6, 0.7, 0.8049955000169575, 0, , , 0.000000, 32.000000, 2.000000,3.000000,1.000000,6.000000,0.500000,1.000000
30, test, 3, probe, 3, 1, 2, 1, 2, 0.3, 0.4, left, 1, 0.3, 0.4, 0.6, 0.7, 1.0496792000485584, 0, 89.35958862304688, 2.766263199970126, 0.000000, 32.000000, 3.000000,3.000000,1.000000,6.000000,0.500000,1.000000
30, test, 3, no_probe, 4, 4, 2, 2, 4, 0.7, 0.4, right, 2, 0.3, 0.4, 0.6, 0.7, 1.0889649998862296, 1, , , 1.000000, 33.000000, 1.000000,3.000000,1.000000,6.000000,0.500000,1.000000
30, test, 3, no_probe, 5, 4, 2, 2, 4, 0.7, 0.4, right, 2, 0.3, 0.4, 0.6, 0.7, 1.190006299992092, 1, , , 2.000000, 34.000000, 2.000000,3.000000,1.000000,6.000000,0.500000,1.000000
30, test, 3, probe, 6, 4, 2, 4, 2, 0.7, 0.4, left, 1, 0.3, 0.4, 0.6, 0.7, 1.385809600003995, 1, 99.99813842773438, 3.216622699983418, 3.000000, 35.000000, 3.000000,3.000000,1.000000,6.000000,0.500000,1.000000
30, test, 3, no_probe, 7, 4, 3, 3, 4, 0.7, 0.6, right, 2, 0.3, 0.4, 0.6, 0.7, 1.4081022000173107, 1, , , 4.000000, 36.000000, 1.000000,2.000000,1.000000,6.000000,0.500000,1.000000
30, test, 3, probe, 8, 2, 3, 3, 2, 0.4, 0.6, right, 2, 0.3, 0.4, 0.6, 0.7, 2.0065063999500126, 0, 95.6016845703125, 5.199912899988703, 4.000000, 36.000000, 2.000000,2.000000,1.000000,6.000000,0.500000,1.000000
30, test, 3, no_probe, 9, 1, 2, 2, 1, 0.3, 0.4, right, 2, 0.3, 0.4, 0.6, 0.7, 0.9750208000186831, 1, , , 5.000000, 37.000000, 1.000000,3.000000,1.000000,6.000000,0.500000,1.000000
30, test, 3, no_probe, 10, 1, 2, 2, 1, 0.3, 0.4, right, 2, 0.3, 0.4, 0.6, 0.7, 0.9301751999882981, 0, , , 5.000000, 37.000000, 2.000000,3.000000,1.000000,6.000000,0.500000,1.000000
30, test, 3, probe, 11, 1, 2, 1, 2, 0.3, 0.4, left, 1, 0.3, 0.4, 0.6, 0.7, 0.6179419999243692, 0, 92.79336547851562, 4.36663679999765, 5.000000, 37.000000, 3.000000,3.000000,1.000000,6.000000,0.500000,1.000000
30, test, 3, no_probe, 12, 4, 3, 4, 3, 0.7, 0.6, left, 1, 0.3, 0.4, 0.6, 0.7, 1.2232152000069618, 1, , , 6.000000, 38.000000, 1.000000,2.000000,1.000000,6.000000,0.500000,1.000000
30, test, 3, probe, 13, 1, 2, 1, 2, 0.3, 0.4, left, 1, 0.3, 0.4, 0.6, 0.7, 0.7556147000286728, 0, 86.1898193359375, 5.699916899902746, 6.000000, 38.000000, 2.000000,2.000000,1.000000,6.000000,0.500000,1.000000
30, test, 3, no_probe, 14, 1, 4, 1, 4, 0.3, 0.7, left, 1, 0.3, 0.4, 0.6, 0.7, 0.8689475000137463, 0, , , 6.000000, 38.000000, 1.000000,3.000000,1.000000,6.000000,0.500000,1.000000
30, test, 3, no_probe, 15, 1, 2, 1, 2, 0.3, 0.4, left, 1, 0.3, 0.4, 0.6, 0.7, 0.8835077000549063, 0, , , 6.000000, 38.000000, 2.000000,3.000000,1.000000,6.000000,0.500000,1.000000
30, test, 3, probe, 16, 1, 4, 4, 1, 0.3, 0.7, right, 2, 0.3, 0.4, 0.6, 0.7, 0.822137099923566, 0, 73.73828125, 3.449990799999796, 6.000000, 38.000000, 3.000000,3.000000,1.000000,6.000000,0.500000,1.000000
30, test, 3, no_probe, 17, 1, 2, 1, 2, 0.3, 0.4, left, 1, 0.3, 0.4, 0.6, 0.7, 1.226889899931848, 1, , , 7.000000, 39.000000, 1.000000,3.000000,1.000000,6.000000,0.500000,1.000000
30, test, 3, no_probe, 18, 1, 4, 4, 1, 0.3, 0.7, right, 2, 0.3, 0.4, 0.6, 0.7, 0.7559148999862373, 0, , , 7.000000, 39.000000, 2.000000,3.000000,1.000000,6.000000,0.500000,1.000000
30, test, 3, probe, 19, 4, 2, 2, 4, 0.7, 0.4, right, 2, 0.3, 0.4, 0.6, 0.7, 0.830307999975048, 1, 74.47775268554688, 6.46658380003646, 8.000000, 40.000000, 3.000000,3.000000,1.000000,6.000000,0.500000,1.000000
30, test, 3, no_probe, 20, 3, 1, 1, 3, 0.6, 0.3, right, 2, 0.3, 0.4, 0.6, 0.7, 0.8304226000327617, 1, , , 9.000000, 41.000000, 1.000000,3.000000,1.000000,6.000000,0.500000,1.000000
30, test, 3, no_probe, 21, 1, 3, 3, 1, 0.3, 0.6, right, 2, 0.3, 0.4, 0.6, 0.7, 1.0399138999637216, 1, , , 10.000000, 42.000000, 2.000000,3.000000,1.000000,6.000000,0.500000,1.000000
30, test, 3, probe, 22, 4, 1, 4, 1, 0.7, 0.3, left, 1, 0.3, 0.4, 0.6, 0.7, 0.9476492999820039, 1, 82.52487182617188, 3.33330520009622, 11.000000, 43.000000, 3.000000,3.000000,1.000000,6.000000,0.500000,1.000000
30, test, 3, no_probe, 23, 3, 2, 3, 2, 0.6, 0.4, left, 1, 0.3, 0.4, 0.6, 0.7, 0.8639087000628933, 1, , , 12.000000, 44.000000, 1.000000,2.000000,1.000000,6.000000,0.500000,1.000000
30, test, 3, probe, 24, 2, 3, 3, 2, 0.4, 0.6, right, 2, 0.3, 0.4, 0.6, 0.7, 1.3589789000106975, 1, 88.62570190429688, 2.216626900015399, 13.000000, 45.000000, 2.000000,2.000000,1.000000,6.000000,0.500000,1.000000
30, test, 3, no_probe, 25, 4, 3, 3, 4, 0.7, 0.6, right, 2, 0.3, 0.4, 0.6, 0.7, 1.0211054000537843, 1, , , 14.000000, 46.000000, 1.000000,2.000000,1.000000,6.000000,0.500000,1.000000
30, test, 4, no_probe, 1, 4, 1, 1, 4, 0.7, 0.3, right, 2, 0.3, 0.4, 0.6, 0.7, 1.608916400000453, 1, , , 1.000000, 47.000000, 1.000000,2.000000,1.000000,6.000000,0.500000,1.000000
30, test, 4, probe, 2, 4, 2, 2, 4, 0.7, 0.4, right, 2, 0.3, 0.4, 0.6, 0.7, 0.9176062999758869, 0, 84.652587890625, 2.1833416000008583, 1.000000, 47.000000, 2.000000,2.000000,1.000000,6.000000,0.500000,1.000000
30, test, 4, no_probe, 3, 3, 4, 4, 3, 0.6, 0.7, right, 2, 0.3, 0.4, 0.6, 0.7, 0.825189600000158, 0, , , 1.000000, 47.000000, 1.000000,2.000000,1.000000,6.000000,0.500000,1.000000
30, test, 4, probe, 4, 1, 3, 3, 1, 0.3, 0.6, right, 2, 0.3, 0.4, 0.6, 0.7, 1.1380959999514744, 0, 79.2637939453125, 2.349968899972737, 1.000000, 47.000000, 2.000000,2.000000,1.000000,6.000000,0.500000,1.000000
30, test, 4, no_probe, 5, 4, 3, 3, 4, 0.7, 0.6, right, 2, 0.3, 0.4, 0.6, 0.7, 0.9144742999924347, 1, , , 2.000000, 48.000000, 1.000000,3.000000,1.000000,6.000000,0.500000,1.000000
30, test, 4, no_probe, 6, 3, 4, 4, 3, 0.6, 0.7, right, 2, 0.3, 0.4, 0.6, 0.7, 1.2442217000061646, 1, , , 3.000000, 49.000000, 2.000000,3.000000,1.000000,6.000000,0.500000,1.000000
30, test, 4, probe, 7, 2, 1, 2, 1, 0.4, 0.3, left, 1, 0.3, 0.4, 0.6, 0.7, 1.3441514000296593, 0, 83.84024047851562, 1.5333051999332383, 3.000000, 49.000000, 3.000000,3.000000,1.000000,6.000000,0.500000,1.000000
30, test, 4, no_probe, 8, 2, 3, 2, 3, 0.4, 0.6, left, 1, 0.3, 0.4, 0.6, 0.7, 1.0257418000837788, 0, , , 3.000000, 49.000000, 1.000000,2.000000,1.000000,6.000000,0.500000,1.000000
30, test, 4, probe, 9, 2, 3, 3, 2, 0.4, 0.6, right, 2, 0.3, 0.4, 0.6, 0.7, 0.9975287999259308, 0, 79.25088500976562, 2.066639899974689, 3.000000, 49.000000, 2.000000,2.000000,1.000000,6.000000,0.500000,1.000000
30, test, 4, no_probe, 10, 3, 4, 4, 3, 0.6, 0.7, right, 2, 0.3, 0.4, 0.6, 0.7, 0.8314025000436231, 1, , , 4.000000, 50.000000, 1.000000,2.000000,1.000000,6.000000,0.500000,1.000000
30, test, 4, probe, 11, 1, 2, 2, 1, 0.3, 0.4, right, 2, 0.3, 0.4, 0.6, 0.7, 0.9547154000028968, 0, 71.61099243164062, 2.549975899979472, 4.000000, 50.000000, 2.000000,2.000000,1.000000,6.000000,0.500000,1.000000
30, test, 4, no_probe, 12, 2, 4, 2, 4, 0.4, 0.7, left, 1, 0.3, 0.4, 0.6, 0.7, 0.6233273999532685, 0, , , 4.000000, 50.000000, 1.000000,3.000000,1.000000,6.000000,0.500000,1.000000
30, test, 4, no_probe, 13, 3, 2, 3, 2, 0.6, 0.4, left, 1, 0.3, 0.4, 0.6, 0.7, 0.9842799999751151, 0, , , 4.000000, 50.000000, 2.000000,3.000000,1.000000,6.000000,0.500000,1.000000
30, test, 4, probe, 14, 2, 4, 2, 4, 0.4, 0.7, left, 1, 0.3, 0.4, 0.6, 0.7, 1.3390815000748262, 1, 63.51983642578125, 2.6831301999045536, 5.000000, 51.000000, 3.000000,3.000000,1.000000,6.000000,0.500000,1.000000
30, test, 4, no_probe, 15, 3, 1, 1, 3, 0.6, 0.3, right, 2, 0.3, 0.4, 0.6, 0.7, 1.0974490999942645, 0, , , 5.000000, 51.000000, 1.000000,2.000000,1.000000,6.000000,0.500000,1.000000
30, test, 4, probe, 16, 1, 4, 1, 4, 0.3, 0.7, left, 1, 0.3, 0.4, 0.6, 0.7, 0.7309983000159264, 1, 78.07232666015625, 3.466648699948564, 6.000000, 52.000000, 2.000000,2.000000,1.000000,6.000000,0.500000,1.000000
30, test, 4, no_probe, 17, 1, 3, 3, 1, 0.3, 0.6, right, 2, 0.3, 0.4, 0.6, 0.7, 0.8359976999927312, 0, , , 6.000000, 52.000000, 1.000000,2.000000,1.000000,6.000000,0.500000,1.000000
30, test, 4, probe, 18, 1, 4, 4, 1, 0.3, 0.7, right, 2, 0.3, 0.4, 0.6, 0.7, 0.7506668999558315, 0, 70.79833984375, 5.666588300024159, 6.000000, 52.000000, 2.000000,2.000000,1.000000,6.000000,0.500000,1.000000
30, test, 4, no_probe, 19, 3, 1, 3, 1, 0.6, 0.3, left, 1, 0.3, 0.4, 0.6, 0.7, 0.7100186999887228, 1, , , 7.000000, 53.000000, 1.000000,2.000000,1.000000,6.000000,0.500000,1.000000
30, test, 4, probe, 20, 1, 2, 1, 2, 0.3, 0.4, left, 1, 0.3, 0.4, 0.6, 0.7, 0.7845586000476032, 1, 67.89877319335938, 3.5666220999555662, 8.000000, 54.000000, 2.000000,2.000000,1.000000,6.000000,0.500000,1.000000
30, test, 4, no_probe, 21, 3, 2, 2, 3, 0.6, 0.4, right, 2, 0.3, 0.4, 0.6, 0.7, 2.7909019000362605, 1, , , 9.000000, 55.000000, 1.000000,3.000000,1.000000,6.000000,0.500000,1.000000
30, test, 4, no_probe, 22, 4, 3, 3, 4, 0.7, 0.6, right, 2, 0.3, 0.4, 0.6, 0.7, 0.7835726999910548, 0, , , 9.000000, 55.000000, 2.000000,3.000000,1.000000,6.000000,0.500000,1.000000
30, test, 4, probe, 23, 3, 2, 3, 2, 0.6, 0.4, left, 1, 0.3, 0.4, 0.6, 0.7, 0.5064069000072777, 1, 40.377960205078125, 1.63329100003466, 10.000000, 56.000000, 3.000000,3.000000,1.000000,6.000000,0.500000,1.000000
30, test, 4, no_probe, 24, 3, 2, 2, 3, 0.6, 0.4, right, 2, 0.3, 0.4, 0.6, 0.7, 0.42046780011150986, 1, , , 11.000000, 57.000000, 1.000000,2.000000,1.000000,6.000000,0.500000,1.000000
30, test, 4, probe, 25, 3, 4, 4, 3, 0.6, 0.7, right, 2, 0.3, 0.4, 0.6, 0.7, 0.8094771000323817, 1, 69.46337890625, 2.2166257000062615, 12.000000, 58.000000, 2.000000,2.000000,1.000000,6.000000,0.500000,1.000000
30, test, 5, no_probe, 1, 3, 2, 2, 3, 0.6, 0.4, right, 2, 0.3, 0.4, 0.6, 0.7, 2.0128140000160784, 1, , , 1.000000, 59.000000, 1.000000,3.000000,1.000000,6.000000,0.500000,1.000000
30, test, 5, no_probe, 2, 1, 3, 3, 1, 0.3, 0.6, right, 2, 0.3, 0.4, 0.6, 0.7, 0.68571210000664, 1, , , 2.000000, 60.000000, 2.000000,3.000000,1.000000,6.000000,0.500000,1.000000
30, test, 5, probe, 3, 4, 3, 4, 3, 0.7, 0.6, left, 1, 0.3, 0.4, 0.6, 0.7, 0.9627860999898985, 1, 43.39697265625, 2.8662409000098705, 3.000000, 61.000000, 3.000000,3.000000,1.000000,6.000000,0.500000,1.000000
30, test, 5, no_probe, 4, 4, 3, 4, 3, 0.7, 0.6, left, 1, 0.3, 0.4, 0.6, 0.7, 0.6425084000220522, 0, , , 3.000000, 61.000000, 1.000000,3.000000,1.000000,6.000000,0.500000,1.000000
30, test, 5, no_probe, 5, 4, 2, 4, 2, 0.7, 0.4, left, 1, 0.3, 0.4, 0.6, 0.7, 0.8951992999063805, 1, , , 4.000000, 62.000000, 2.000000,3.000000,1.000000,6.000000,0.500000,1.000000
30, test, 5, probe, 6, 1, 2, 2, 1, 0.3, 0.4, right, 2, 0.3, 0.4, 0.6, 0.7, 0.864809500053525, 0, 69.53469848632812, 2.1166263000341132, 4.000000, 62.000000, 3.000000,3.000000,1.000000,6.000000,0.500000,1.000000
30, test, 5, no_probe, 7, 2, 3, 2, 3, 0.4, 0.6, left, 1, 0.3, 0.4, 0.6, 0.7, 0.7933046999387443, 0, , , 4.000000, 62.000000, 1.000000,2.000000,1.000000,6.000000,0.500000,1.000000
30, test, 5, probe, 8, 4, 1, 4, 1, 0.7, 0.3, left, 1, 0.3, 0.4, 0.6, 0.7, 1.099121999926865, 0, 78.06201171875, 1.766611299943179, 4.000000, 62.000000, 2.000000,2.000000,1.000000,6.000000,0.500000,1.000000
30, test, 5, no_probe, 9, 2, 3, 3, 2, 0.4, 0.6, right, 2, 0.3, 0.4, 0.6, 0.7, 0.49947299994528294, 0, , , 4.000000, 62.000000, 1.000000,2.000000,1.000000,6.000000,0.500000,1.000000
30, test, 5, probe, 10, 2, 3, 3, 2, 0.4, 0.6, right, 2, 0.3, 0.4, 0.6, 0.7, 1.0051591000519693, 1, 79.58395385742188, 1.8666476999642327, 5.000000, 63.000000, 2.000000,2.000000,1.000000,6.000000,0.500000,1.000000
30, test, 5, no_probe, 11, 3, 4, 4, 3, 0.6, 0.7, right, 2, 0.3, 0.4, 0.6, 0.7, 0.8878859999822453, 0, , , 5.000000, 63.000000, 1.000000,2.000000,1.000000,6.000000,0.500000,1.000000
30, test, 5, probe, 12, 1, 2, 1, 2, 0.3, 0.4, left, 1, 0.3, 0.4, 0.6, 0.7, 0.8362276999978349, 0, 67.67837524414062, 1.2833541999571025, 5.000000, 63.000000, 2.000000,2.000000,1.000000,6.000000,0.500000,1.000000
30, test, 5, no_probe, 13, 2, 3, 2, 3, 0.4, 0.6, left, 1, 0.3, 0.4, 0.6, 0.7, 0.756018599960953, 0, , , 5.000000, 63.000000, 1.000000,3.000000,1.000000,6.000000,0.500000,1.000000
30, test, 5, no_probe, 14, 4, 1, 4, 1, 0.7, 0.3, left, 1, 0.3, 0.4, 0.6, 0.7, 1.307164300000295, 1, , , 6.000000, 64.000000, 2.000000,3.000000,1.000000,6.000000,0.500000,1.000000
30, test, 5, probe, 15, 2, 3, 2, 3, 0.4, 0.6, left, 1, 0.3, 0.4, 0.6, 0.7, 0.9526635000947863, 1, 79.6240234375, 1.6166494999779388, 7.000000, 65.000000, 3.000000,3.000000,1.000000,6.000000,0.500000,1.000000
30, test, 5, no_probe, 16, 2, 3, 3, 2, 0.4, 0.6, right, 2, 0.3, 0.4, 0.6, 0.7, 0.7633333000121638, 0, , , 7.000000, 65.000000, 1.000000,3.000000,1.000000,6.000000,0.500000,1.000000
30, test, 5, no_probe, 17, 4, 2, 2, 4, 0.7, 0.4, right, 2, 0.3, 0.4, 0.6, 0.7, 0.6375153000699356, 1, , , 8.000000, 66.000000, 2.000000,3.000000,1.000000,6.000000,0.500000,1.000000
30, test, 5, probe, 18, 2, 3, 3, 2, 0.4, 0.6, right, 2, 0.3, 0.4, 0.6, 0.7, 0.9055865000700578, 0, 72.03851318359375, 2.4666201000800356, 8.000000, 66.000000, 3.000000,3.000000,1.000000,6.000000,0.500000,1.000000
30, test, 5, no_probe, 19, 3, 1, 3, 1, 0.6, 0.3, left, 1, 0.3, 0.4, 0.6, 0.7, 0.7352480998961255, 0, , , 8.000000, 66.000000, 1.000000,2.000000,1.000000,6.000000,0.500000,1.000000
30, test, 5, probe, 20, 2, 3, 3, 2, 0.4, 0.6, right, 2, 0.3, 0.4, 0.6, 0.7, 1.7713386999676004, 1, 80.2196044921875, 1.7503229000139982, 9.000000, 67.000000, 2.000000,2.000000,1.000000,6.000000,0.500000,1.000000
30, test, 5, no_probe, 21, 4, 3, 4, 3, 0.7, 0.6, left, 1, 0.3, 0.4, 0.6, 0.7, 0.6507453999947757, 0, , , 9.000000, 67.000000, 1.000000,2.000000,1.000000,6.000000,0.500000,1.000000
30, test, 5, probe, 22, 1, 2, 2, 1, 0.3, 0.4, right, 2, 0.3, 0.4, 0.6, 0.7, 0.7855732999742031, 1, 78.28909301757812, 1.6166418000357226, 10.000000, 68.000000, 2.000000,2.000000,1.000000,6.000000,0.500000,1.000000
30, test, 5, no_probe, 23, 4, 3, 3, 4, 0.7, 0.6, right, 2, 0.3, 0.4, 0.6, 0.7, 0.6940841999603435, 1, , , 11.000000, 69.000000, 1.000000,3.000000,1.000000,6.000000,0.500000,1.000000
30, test, 5, no_probe, 24, 4, 3, 3, 4, 0.7, 0.6, right, 2, 0.3, 0.4, 0.6, 0.7, 0.6641292999265715, 0, , , 11.000000, 69.000000, 2.000000,3.000000,1.000000,6.000000,0.500000,1.000000
30, test, 5, probe, 25, 2, 3, 2, 3, 0.4, 0.6, left, 1, 0.3, 0.4, 0.6, 0.7, 0.45424020010977983, 0, 65.17755126953125, 1.5999787000473589, 11.000000, 69.000000, 3.000000,3.000000,1.000000,6.000000,0.500000,1.000000
30, test, 6, no_probe, 1, 1, 3, 3, 1, 0.3, 0.6, right, 2, 0.3, 0.4, 0.6, 0.7, 0.612243700074032, 0, , , 0.000000, 69.000000, 1.000000,3.000000,1.000000,6.000000,0.500000,1.000000
30, test, 6, no_probe, 2, 4, 1, 1, 4, 0.7, 0.3, right, 2, 0.3, 0.4, 0.6, 0.7, 0.5775834999512881, 0, , , 0.000000, 69.000000, 2.000000,3.000000,1.000000,6.000000,0.500000,1.000000
30, test, 6, probe, 3, 3, 1, 1, 3, 0.6, 0.3, right, 2, 0.3, 0.4, 0.6, 0.7, 1.1606246000155807, 0, 69.8887939453125, 1.3329279000172392, 0.000000, 69.000000, 3.000000,3.000000,1.000000,6.000000,0.500000,1.000000
30, test, 6, no_probe, 4, 2, 4, 4, 2, 0.4, 0.7, right, 2, 0.3, 0.4, 0.6, 0.7, 0.5519439000636339, 1, , , 1.000000, 70.000000, 1.000000,3.000000,1.000000,6.000000,0.500000,1.000000
30, test, 6, no_probe, 5, 1, 4, 1, 4, 0.3, 0.7, left, 1, 0.3, 0.4, 0.6, 0.7, 0.9882601998979226, 0, , , 1.000000, 70.000000, 2.000000,3.000000,1.000000,6.000000,0.500000,1.000000
30, test, 6, probe, 6, 4, 1, 4, 1, 0.7, 0.3, left, 1, 0.3, 0.4, 0.6, 0.7, 1.2064214999554679, 1, 83.436767578125, 1.3499668000731617, 2.000000, 71.000000, 3.000000,3.000000,1.000000,6.000000,0.500000,1.000000
30, test, 6, no_probe, 7, 2, 1, 2, 1, 0.4, 0.3, left, 1, 0.3, 0.4, 0.6, 0.7, 0.6365296000149101, 0, , , 2.000000, 71.000000, 1.000000,3.000000,1.000000,6.000000,0.500000,1.000000
30, test, 6, no_probe, 8, 3, 2, 3, 2, 0.6, 0.4, left, 1, 0.3, 0.4, 0.6, 0.7, 0.948112600017339, 1, , , 3.000000, 72.000000, 2.000000,3.000000,1.000000,6.000000,0.500000,1.000000
30, test, 6, probe, 9, 1, 2, 2, 1, 0.3, 0.4, right, 2, 0.3, 0.4, 0.6, 0.7, 0.8594603000674397, 0, 80.59359741210938, 1.799967399914749, 3.000000, 72.000000, 3.000000,3.000000,1.000000,6.000000,0.500000,1.000000
30, test, 6, no_probe, 10, 4, 1, 1, 4, 0.7, 0.3, right, 2, 0.3, 0.4, 0.6, 0.7, 0.8933657000306994, 0, , , 3.000000, 72.000000, 1.000000,3.000000,1.000000,6.000000,0.500000,1.000000
30, test, 6, no_probe, 11, 1, 2, 2, 1, 0.3, 0.4, right, 2, 0.3, 0.4, 0.6, 0.7, 0.9397378000430763, 0, , , 3.000000, 72.000000, 2.000000,3.000000,1.000000,6.000000,0.500000,1.000000
30, test, 6, probe, 12, 1, 2, 1, 2, 0.3, 0.4, left, 1, 0.3, 0.4, 0.6, 0.7, 1.1833027999382466, 0, 83.61550903320312, 1.6165690999478102, 3.000000, 72.000000, 3.000000,3.000000,1.000000,6.000000,0.500000,1.000000
30, test, 6, no_probe, 13, 3, 2, 2, 3, 0.6, 0.4, right, 2, 0.3, 0.4, 0.6, 0.7, 0.5483442000113428, 1, , , 4.000000, 73.000000, 1.000000,2.000000,1.000000,6.000000,0.500000,1.000000
30, test, 6, probe, 14, 4, 2, 4, 2, 0.7, 0.4, left, 1, 0.3, 0.4, 0.6, 0.7, 0.819618699955754, 0, 74.67117309570312, 2.4833313999697566, 4.000000, 73.000000, 2.000000,2.000000,1.000000,6.000000,0.500000,1.000000
30, test, 6, no_probe, 15, 2, 1, 1, 2, 0.4, 0.3, right, 2, 0.3, 0.4, 0.6, 0.7, 0.30798250006046146, 1, , , 5.000000, 74.000000, 1.000000,3.000000,1.000000,6.000000,0.500000,1.000000
30, test, 6, no_probe, 16, 2, 4, 4, 2, 0.4, 0.7, right, 2, 0.3, 0.4, 0.6, 0.7, 0.9572131000459194, 1, , , 6.000000, 75.000000, 2.000000,3.000000,1.000000,6.000000,0.500000,1.000000
30, test, 6, probe, 17, 4, 3, 3, 4, 0.7, 0.6, right, 2, 0.3, 0.4, 0.6, 0.7, 0.9002685999730602, 1, 92.1251220703125, 2.2333249000366777, 7.000000, 76.000000, 3.000000,3.000000,1.000000,6.000000,0.500000,1.000000
30, test, 6, no_probe, 18, 4, 1, 4, 1, 0.7, 0.3, left, 1, 0.3, 0.4, 0.6, 0.7, 0.6146405000472441, 1, , , 8.000000, 77.000000, 1.000000,3.000000,1.000000,6.000000,0.500000,1.000000
30, test, 6, no_probe, 19, 1, 4, 4, 1, 0.3, 0.7, right, 2, 0.3, 0.4, 0.6, 0.7, 1.0789678000146523, 0, , , 8.000000, 77.000000, 2.000000,3.000000,1.000000,6.000000,0.500000,1.000000
30, test, 6, probe, 20, 2, 1, 1, 2, 0.4, 0.3, right, 2, 0.3, 0.4, 0.6, 0.7, 1.7286400999873877, 0, 80.10565185546875, 1.8666357999900356, 8.000000, 77.000000, 3.000000,3.000000,1.000000,6.000000,0.500000,1.000000
30, test, 6, no_probe, 21, 4, 1, 1, 4, 0.7, 0.3, right, 2, 0.3, 0.4, 0.6, 0.7, 0.4543470999924466, 0, , , 8.000000, 77.000000, 1.000000,2.000000,1.000000,6.000000,0.500000,1.000000
30, test, 6, probe, 22, 1, 2, 2, 1, 0.3, 0.4, right, 2, 0.3, 0.4, 0.6, 0.7, 1.0368098000762984, 1, 72.7098388671875, 4.399965399992652, 9.000000, 78.000000, 2.000000,2.000000,1.000000,6.000000,0.500000,1.000000
30, test, 6, no_probe, 23, 4, 1, 1, 4, 0.7, 0.3, right, 2, 0.3, 0.4, 0.6, 0.7, 0.29947239998728037, 1, , , 10.000000, 79.000000, 1.000000,3.000000,1.000000,6.000000,0.500000,1.000000
30, test, 6, no_probe, 24, 2, 4, 4, 2, 0.4, 0.7, right, 2, 0.3, 0.4, 0.6, 0.7, 0.881686000037007, 1, , , 11.000000, 80.000000, 2.000000,3.000000,1.000000,6.000000,0.500000,1.000000
30, test, 6, probe, 25, 3, 2, 2, 3, 0.6, 0.4, right, 2, 0.3, 0.4, 0.6, 0.7, 0.8501877000089735, 1, 64.10855102539062, 2.4332897999556735, 12.000000, 81.000000, 3.000000,3.000000,1.000000,6.000000,0.500000,1.000000
30, test, 7, no_probe, 1, 1, 3, 3, 1, 0.3, 0.6, right, 2, 0.3, 0.4, 0.6, 0.7, 1.0135116999736056, 0, , , 0.000000, 81.000000, 1.000000,2.000000,1.000000,6.000000,0.500000,1.000000
30, test, 7, probe, 2, 4, 2, 4, 2, 0.7, 0.4, left, 1, 0.3, 0.4, 0.6, 0.7, 1.0063949999166653, 1, 90.18328857421875, 2.7333090000320226, 1.000000, 82.000000, 2.000000,2.000000,1.000000,6.000000,0.500000,1.000000
30, test, 7, no_probe, 3, 3, 2, 3, 2, 0.6, 0.4, left, 1, 0.3, 0.4, 0.6, 0.7, 0.9324033999582753, 0, , , 1.000000, 82.000000, 1.000000,3.000000,1.000000,6.000000,0.500000,1.000000
30, test, 7, no_probe, 4, 4, 2, 2, 4, 0.7, 0.4, right, 2, 0.3, 0.4, 0.6, 0.7, 1.0290519000263885, 0, , , 1.000000, 82.000000, 2.000000,3.000000,1.000000,6.000000,0.500000,1.000000
30, test, 7, probe, 5, 4, 3, 3, 4, 0.7, 0.6, right, 2, 0.3, 0.4, 0.6, 0.7, 0.8564373999834061, 1, 86.18157958984375, 1.816575099946931, 2.000000, 83.000000, 3.000000,3.000000,1.000000,6.000000,0.500000,1.000000
30, test, 7, no_probe, 6, 1, 3, 3, 1, 0.3, 0.6, right, 2, 0.3, 0.4, 0.6, 0.7, 1.2418083000229672, 0, , , 2.000000, 83.000000, 1.000000,3.000000,1.000000,6.000000,0.500000,1.000000
30, test, 7, no_probe, 7, 4, 3, 4, 3, 0.7, 0.6, left, 1, 0.3, 0.4, 0.6, 0.7, 0.9465761999599636, 1, , , 3.000000, 84.000000, 2.000000,3.000000,1.000000,6.000000,0.500000,1.000000
30, test, 7, probe, 8, 3, 2, 3, 2, 0.6, 0.4, left, 1, 0.3, 0.4, 0.6, 0.7, 1.1531735999742523, 0, 87.26846313476562, 1.699987499974668, 3.000000, 84.000000, 3.000000,3.000000,1.000000,6.000000,0.500000,1.000000
30, test, 7, no_probe, 9, 1, 3, 3, 1, 0.3, 0.6, right, 2, 0.3, 0.4, 0.6, 0.7, 0.7882471999619156, 0, , , 3.000000, 84.000000, 1.000000,2.000000,1.000000,6.000000,0.500000,1.000000
30, test, 7, probe, 10, 2, 1, 1, 2, 0.4, 0.3, right, 2, 0.3, 0.4, 0.6, 0.7, 0.9010190999833867, 0, 73.88864135742188, 2.3332803999073803, 3.000000, 84.000000, 2.000000,2.000000,1.000000,6.000000,0.500000,1.000000
30, test, 7, no_probe, 11, 3, 4, 3, 4, 0.6, 0.7, left, 1, 0.3, 0.4, 0.6, 0.7, 1.0849054999416694, 0, , , 3.000000, 84.000000, 1.000000,3.000000,1.000000,6.000000,0.500000,1.000000
30, test, 7, no_probe, 12, 1, 3, 1, 3, 0.3, 0.6, left, 1, 0.3, 0.4, 0.6, 0.7, 0.7622796000214294, 0, , , 3.000000, 84.000000, 2.000000,3.000000,1.000000,6.000000,0.500000,1.000000
30, test, 7, probe, 13, 2, 4, 2, 4, 0.4, 0.7, left, 1, 0.3, 0.4, 0.6, 0.7, 0.7136484000366181, 1, 68.00802612304688, 1.9166503999149427, 4.000000, 85.000000, 3.000000,3.000000,1.000000,6.000000,0.500000,1.000000
30, test, 7, no_probe, 14, 2, 4, 4, 2, 0.4, 0.7, right, 2, 0.3, 0.4, 0.6, 0.7, 0.5326715999981388, 0, , , 4.000000, 85.000000, 1.000000,3.000000,1.000000,6.000000,0.500000,1.000000
30, test, 7, no_probe, 15, 3, 2, 2, 3, 0.6, 0.4, right, 2, 0.3, 0.4, 0.6, 0.7, 0.7678061999613419, 1, , , 5.000000, 86.000000, 2.000000,3.000000,1.000000,6.000000,0.500000,1.000000
30, test, 7, probe, 16, 2, 3, 3, 2, 0.4, 0.6, right, 2, 0.3, 0.4, 0.6, 0.7, 0.9477558999788016, 0, 64.72598266601562, 1.1999984999420121, 5.000000, 86.000000, 3.000000,3.000000,1.000000,6.000000,0.500000,1.000000
30, test, 7, no_probe, 17, 1, 4, 1, 4, 0.3, 0.7, left, 1, 0.3, 0.4, 0.6, 0.7, 0.5281359000364318, 0, , , 5.000000, 86.000000, 1.000000,2.000000,1.000000,6.000000,0.500000,1.000000
30, test, 7, probe, 18, 3, 4, 3, 4, 0.6, 0.7, left, 1, 0.3, 0.4, 0.6, 0.7, 1.48459439992439, 1, 78.09512329101562, 2.0999605000251904, 6.000000, 87.000000, 2.000000,2.000000,1.000000,6.000000,0.500000,1.000000
30, test, 7, no_probe, 19, 1, 3, 3, 1, 0.3, 0.6, right, 2, 0.3, 0.4, 0.6, 0.7, 0.7087622000835836, 0, , , 6.000000, 87.000000, 1.000000,2.000000,1.000000,6.000000,0.500000,1.000000
30, test, 7, probe, 20, 4, 1, 4, 1, 0.7, 0.3, left, 1, 0.3, 0.4, 0.6, 0.7, 1.2340801000827923, 1, 66.12643432617188, 1.8832576000131667, 7.000000, 88.000000, 2.000000,2.000000,1.000000,6.000000,0.500000,1.000000
30, test, 7, no_probe, 21, 2, 1, 2, 1, 0.4, 0.3, left, 1, 0.3, 0.4, 0.6, 0.7, 0.7891559000127017, 0, , , 7.000000, 88.000000, 1.000000,3.000000,1.000000,6.000000,0.500000,1.000000
30, test, 7, no_probe, 22, 3, 2, 3, 2, 0.6, 0.4, left, 1, 0.3, 0.4, 0.6, 0.7, 1.0121963999699801, 0, , , 7.000000, 88.000000, 2.000000,3.000000,1.000000,6.000000,0.500000,1.000000
30, test, 7, probe, 23, 2, 4, 4, 2, 0.4, 0.7, right, 2, 0.3, 0.4, 0.6, 0.7, 0.00950899999588728, 0, 63.791656494140625, 3.2166744999121875, 7.000000, 88.000000, 3.000000,3.000000,1.000000,6.000000,0.500000,1.000000
30, test, 7, no_probe, 24, 2, 4, 2, 4, 0.4, 0.7, left, 1, 0.3, 0.4, 0.6, 0.7, 1.6963094000238925, 0, , , 7.000000, 88.000000, 1.000000,3.000000,1.000000,6.000000,0.500000,1.000000
30, test, 7, no_probe, 25, 2, 3, 2, 3, 0.4, 0.6, left, 1, 0.3, 0.4, 0.6, 0.7, 1.126526299980469, 0, , , 7.000000, 88.000000, 2.000000,3.000000,1.000000,6.000000,0.500000,1.000000
30, test, 8, no_probe, 1, 2, 4, 4, 2, 0.4, 0.7, right, 2, 0.3, 0.4, 0.6, 0.7, 0.6985638999613002, 1, , , 1.000000, 89.000000, 1.000000,2.000000,1.000000,6.000000,0.500000,1.000000
30, test, 8, probe, 2, 1, 2, 2, 1, 0.3, 0.4, right, 2, 0.3, 0.4, 0.6, 0.7, 0.6560892999405041, 0, 74.20111083984375, 2.4999687999952585, 1.000000, 89.000000, 2.000000,2.000000,1.000000,6.000000,0.500000,1.000000
30, test, 8, no_probe, 3, 3, 2, 3, 2, 0.6, 0.4, left, 1, 0.3, 0.4, 0.6, 0.7, 0.6026501000160351, 1, , , 2.000000, 90.000000, 1.000000,3.000000,1.000000,6.000000,0.500000,1.000000
30, test, 8, no_probe, 4, 3, 2, 2, 3, 0.6, 0.4, right, 2, 0.3, 0.4, 0.6, 0.7, 1.0473329999949783, 1, , , 3.000000, 91.000000, 2.000000,3.000000,1.000000,6.000000,0.500000,1.000000
30, test, 8, probe, 5, 1, 2, 2, 1, 0.3, 0.4, right, 2, 0.3, 0.4, 0.6, 0.7, 0.9737992000300437, 0, 87.57037353515625, 2.9499218000564724, 3.000000, 91.000000, 3.000000,3.000000,1.000000,6.000000,0.500000,1.000000
30, test, 8, no_probe, 6, 4, 2, 4, 2, 0.7, 0.4, left, 1, 0.3, 0.4, 0.6, 0.7, 0.7973744000773877, 1, , , 4.000000, 92.000000, 1.000000,2.000000,1.000000,6.000000,0.500000,1.000000
30, test, 8, probe, 7, 3, 4, 3, 4, 0.6, 0.7, left, 1, 0.3, 0.4, 0.6, 0.7, 1.0992906000465155, 0, 90.51141357421875, 2.049943499965593, 4.000000, 92.000000, 2.000000,2.000000,1.000000,6.000000,0.500000,1.000000
30, test, 8, no_probe, 8, 2, 4, 2, 4, 0.4, 0.7, left, 1, 0.3, 0.4, 0.6, 0.7, 0.8660632000537589, 0, , , 4.000000, 92.000000, 1.000000,2.000000,1.000000,6.000000,0.500000,1.000000
30, test, 8, probe, 9, 4, 2, 2, 4, 0.7, 0.4, right, 2, 0.3, 0.4, 0.6, 0.7, 0.44375430000945926, 0, 68.05999755859375, 1.499969800002873, 4.000000, 92.000000, 2.000000,2.000000,1.000000,6.000000,0.500000,1.000000
30, test, 8, no_probe, 10, 2, 3, 3, 2, 0.4, 0.6, right, 2, 0.3, 0.4, 0.6, 0.7, 0.5116646999958903, 0, , , 4.000000, 92.000000, 1.000000,3.000000,1.000000,6.000000,0.500000,1.000000
30, test, 8, no_probe, 11, 3, 4, 4, 3, 0.6, 0.7, right, 2, 0.3, 0.4, 0.6, 0.7, 0.41621769999619573, 1, , , 5.000000, 93.000000, 2.000000,3.000000,1.000000,6.000000,0.500000,1.000000
30, test, 8, probe, 12, 1, 2, 1, 2, 0.3, 0.4, left, 1, 0.3, 0.4, 0.6, 0.7, 1.2531460999744013, 1, 82.5404052734375, 1.416612800094299, 6.000000, 94.000000, 3.000000,3.000000,1.000000,6.000000,0.500000,1.000000
30, test, 8, no_probe, 13, 4, 1, 1, 4, 0.7, 0.3, right, 2, 0.3, 0.4, 0.6, 0.7, 0.47784690000116825, 1, , , 7.000000, 95.000000, 1.000000,3.000000,1.000000,6.000000,0.500000,1.000000
30, test, 8, no_probe, 14, 3, 1, 3, 1, 0.6, 0.3, left, 1, 0.3, 0.4, 0.6, 0.7, 2.19147309998516, 1, , , 8.000000, 96.000000, 2.000000,3.000000,1.000000,6.000000,0.500000,1.000000
30, test, 8, probe, 15, 2, 3, 3, 2, 0.4, 0.6, right, 2, 0.3, 0.4, 0.6, 0.7, 1.3492600999306887, 0, 92.1278076171875, 2.333289199974388, 8.000000, 96.000000, 3.000000,3.000000,1.000000,6.000000,0.500000,1.000000
30, test, 8, no_probe, 16, 2, 1, 1, 2, 0.4, 0.3, right, 2, 0.3, 0.4, 0.6, 0.7, 0.9217180999694392, 0, , , 8.000000, 96.000000, 1.000000,2.000000,1.000000,6.000000,0.500000,1.000000
30, test, 8, probe, 17, 2, 3, 2, 3, 0.4, 0.6, left, 1, 0.3, 0.4, 0.6, 0.7, 0.3549232999794185, 1, 75.4813232421875, 1.9833250999217853, 9.000000, 97.000000, 2.000000,2.000000,1.000000,6.000000,0.500000,1.000000
30, test, 8, no_probe, 18, 1, 3, 3, 1, 0.3, 0.6, right, 2, 0.3, 0.4, 0.6, 0.7, 0.786866599926725, 0, , , 9.000000, 97.000000, 1.000000,3.000000,1.000000,6.000000,0.500000,1.000000
30, test, 8, no_probe, 19, 4, 2, 2, 4, 0.7, 0.4, right, 2, 0.3, 0.4, 0.6, 0.7, 0.48316150007303804, 1, , , 10.000000, 98.000000, 2.000000,3.000000,1.000000,6.000000,0.500000,1.000000
30, test, 8, probe, 20, 2, 1, 1, 2, 0.4, 0.3, right, 2, 0.3, 0.4, 0.6, 0.7, 1.0018885000608861, 1, 72.36627197265625, 2.9832555999746546, 11.000000, 99.000000, 3.000000,3.000000,1.000000,6.000000,0.500000,1.000000
30, test, 8, no_probe, 21, 1, 2, 1, 2, 0.3, 0.4, left, 1, 0.3, 0.4, 0.6, 0.7, 0.4872295999666676, 0, , , 11.000000, 99.000000, 1.000000,2.000000,1.000000,6.000000,0.500000,1.000000
30, test, 8, probe, 22, 4, 3, 3, 4, 0.7, 0.6, right, 2, 0.3, 0.4, 0.6, 0.7, 0.24859490001108497, 1, 73.92510986328125, 2.4499285999918357, 12.000000, 100.000000, 2.000000,2.000000,1.000000,6.000000,0.500000,1.000000
30, test, 8, no_probe, 23, 3, 1, 1, 3, 0.6, 0.3, right, 2, 0.3, 0.4, 0.6, 0.7, 0.6161691000452265, 1, , , 13.000000, 101.000000, 1.000000,2.000000,1.000000,6.000000,0.500000,1.000000
30, test, 8, probe, 24, 3, 2, 2, 3, 0.6, 0.4, right, 2, 0.3, 0.4, 0.6, 0.7, 1.0771309999981895, 0, 82.57720947265625, 2.3999818000011146, 13.000000, 101.000000, 2.000000,2.000000,1.000000,6.000000,0.500000,1.000000
30, test, 8, no_probe, 25, 4, 3, 4, 3, 0.7, 0.6, left, 1, 0.3, 0.4, 0.6, 0.7, 0.39407220005523413, 0, , , 13.000000, 101.000000, 1.000000,2.000000,1.000000,6.000000,0.500000,1.000000
