subject, block_type, block, thought probe, trial, chosen, unchosen, offer_left_image, offer_right_image, exp_value_chosen, exp_value_unchosen, choice_location, choice_key, exp_value1, exp_value2, exp_value3, exp_value4, RT, reward, vas, RT_vas, coins_per_block, coins_per_task, count_to_prob, ntrial_to_prob, ITI_duration,RT_deadline,choice_feedback_duration,outcome_duration
16, test, 1, no_probe, 1, 3, 1, 3, 1, 0.6, 0.3, left, 1, 0.3, 0.4, 0.6, 0.7, 1.5199423999292776, 0, , , 0.000000, 0.000000, 1.000000,2.000000,1.000000,6.000000,0.500000,1.000000
16, test, 1, probe, 2, 4, 3, 3, 4, 0.7, 0.6, right, 2, 0.3, 0.4, 0.6, 0.7, 1.0261931999120861, 1, 99.99801635742188, 3.749931800062768, 1.000000, 1.000000, 2.000000,2.000000,1.000000,6.000000,0.500000,1.000000
16, test, 1, no_probe, 3, 1, 3, 3, 1, 0.3, 0.6, right, 2, 0.3, 0.4, 0.6, 0.7, 0.6493141999235377, 0, , , 1.000000, 1.000000, 1.000000,3.000000,1.000000,6.000000,0.500000,1.000000
16, test, 1, no_probe, 4, 4, 3, 4, 3, 0.7, 0.6, left, 1, 0.3, 0.4, 0.6, 0.7, 1.51168230001349, 1, , , 2.000000, 2.000000, 2.000000,3.000000,1.000000,6.000000,0.500000,1.000000
16, test, 1, probe, 5, 3, 2, 3, 2, 0.6, 0.4, left, 1, 0.3, 0.4, 0.6, 0.7, 1.7267468000063673, 1, 99.99899291992188, 2.8166386000812054, 3.000000, 3.000000, 3.000000,3.000000,1.000000,6.000000,0.500000,1.000000
16, test, 1, no_probe, 6, 1, 3, 1, 3, 0.3, 0.6, left, 1, 0.3, 0.4, 0.6, 0.7, 1.5655825000721961, 0, , , 3.000000, 3.000000, 1.000000,2.000000,1.000000,6.000000,0.500000,1.000000
16, test, 1, no_probe, 1, 2, 1, 2, 1, 0.4, 0.3, left, 1, 0.3, 0.4, 0.6, 0.7, 0.9679195999633521, 0, , , 0.000000, 3.000000, 1.000000,2.000000,1.000000,6.000000,0.500000,1.000000
16, test, 1, probe, 2, 1, 3, 1, 3, 0.3, 0.6, left, 1, 0.3, 0.4, 0.6, 0.7, 2.304582000011578, 1, 99.998779296875, 3.216622499981895, 1.000000, 4.000000, 2.000000,2.000000,1.000000,6.000000,0.500000,1.000000
16, test, 1, no_probe, 3, 1, 2, 1, 2, 0.3, 0.4, left, 1, 0.3, 0.4, 0.6, 0.7, 1.0439998999936506, 0, , , 1.000000, 4.000000, 1.000000,2.000000,1.000000,6.000000,0.500000,1.000000
16, test, 1, probe, 4, 3, 2, 2, 3, 0.6, 0.4, right, 2, 0.3, 0.4, 0.6, 0.7, 1.2069653999060392, 1, 99.9952392578125, 5.199929299997166, 2.000000, 5.000000, 2.000000,2.000000,1.000000,6.000000,0.500000,1.000000
16, test, 1, no_probe, 5, 3, 4, 4, 3, 0.6, 0.7, right, 2, 0.3, 0.4, 0.6, 0.7, 1.2467382000759244, 1, , , 3.000000, 6.000000, 1.000000,2.000000,1.000000,6.000000,0.500000,1.000000
16, test, 1, probe, 6, 1, 4, 4, 1, 0.3, 0.7, right, 2, 0.3, 0.4, 0.6, 0.7, 1.7025884999893606, 0, 97.4542236328125, 3.249952399986796, 3.000000, 6.000000, 2.000000,2.000000,1.000000,6.000000,0.500000,1.000000
16, test, 1, no_probe, 7, 3, 4, 3, 4, 0.6, 0.7, left, 1, 0.3, 0.4, 0.6, 0.7, 0.6614296999759972, 1, , , 4.000000, 7.000000, 1.000000,2.000000,1.000000,6.000000,0.500000,1.000000
16, test, 1, probe, 8, 3, 2, 2, 3, 0.6, 0.4, right, 2, 0.3, 0.4, 0.6, 0.7, 0.9117124000331387, 1, 99.99972534179688, 2.1499766999622807, 5.000000, 8.000000, 2.000000,2.000000,1.000000,6.000000,0.500000,1.000000
16, test, 1, no_probe, 9, 3, 2, 3, 2, 0.6, 0.4, left, 1, 0.3, 0.4, 0.6, 0.7, 0.6504534999839962, 1, , , 6.000000, 9.000000, 1.000000,3.000000,1.000000,6.000000,0.500000,1.000000
16, test, 1, no_probe, 10, 3, 1, 3, 1, 0.6, 0.3, left, 1, 0.3, 0.4, 0.6, 0.7, 0.8449184999335557, 1, , , 7.000000, 10.000000, 2.000000,3.000000,1.000000,6.000000,0.500000,1.000000
16, test, 1, probe, 11, 3, 2, 2, 3, 0.6, 0.4, right, 2, 0.3, 0.4, 0.6, 0.7, 0.60058960004244, 0, 99.99960327148438, 2.533310199971311, 7.000000, 10.000000, 3.000000,3.000000,1.000000,6.000000,0.500000,1.000000
16, test, 1, no_probe, 12, 3, 4, 4, 3, 0.6, 0.7, right, 2, 0.3, 0.4, 0.6, 0.7, 0.9276783999521285, 0, , , 7.000000, 10.000000, 1.000000,2.000000,1.000000,6.000000,0.500000,1.000000
16, test, 1, probe, 13, 3, 2, 3, 2, 0.6, 0.4, left, 1, 0.3, 0.4, 0.6, 0.7, 3.1271318000508472, 1, 99.99954223632812, 2.5833593000425026, 8.000000, 11.000000, 2.000000,2.000000,1.000000,6.000000,0.500000,1.000000
16, test, 1, no_probe, 14, 4, 2, 2, 4, 0.7, 0.4, right, 2, 0.3, 0.4, 0.6, 0.7, 0.8677068999968469, 1, , , 9.000000, 12.000000, 1.000000,3.000000,1.000000,6.000000,0.500000,1.000000
16, test, 1, no_probe, 15, 4, 3, 3, 4, 0.7, 0.6, right, 2, 0.3, 0.4, 0.6, 0.7, 0.8661599999759346, 0, , , 9.000000, 12.000000, 2.000000,3.000000,1.000000,6.000000,0.500000,1.000000
16, test, 1, probe, 16, 4, 2, 2, 4, 0.7, 0.4, right, 2, 0.3, 0.4, 0.6, 0.7, 1.2695724999066442, 1, 99.999267578125, 2.299989999970421, 10.000000, 13.000000, 3.000000,3.000000,1.000000,6.000000,0.500000,1.000000
16, test, 1, no_probe, 17, 3, 2, 2, 3, 0.6, 0.4, right, 2, 0.3, 0.4, 0.6, 0.7, 1.1344220000319183, 0, , , 10.000000, 13.000000, 1.000000,3.000000,1.000000,6.000000,0.500000,1.000000
16, test, 1, no_probe, 18, 2, 3, 2, 3, 0.4, 0.6, left, 1, 0.3, 0.4, 0.6, 0.7, 1.0540702999569476, 0, , , 10.000000, 13.000000, 2.000000,3.000000,1.000000,6.000000,0.500000,1.000000
16, test, 1, probe, 19, 4, 2, 2, 4, 0.7, 0.4, right, 2, 0.3, 0.4, 0.6, 0.7, 0.8813889999873936, 1, 99.999755859375, 2.533323899959214, 11.000000, 14.000000, 3.000000,3.000000,1.000000,6.000000,0.500000,1.000000
16, test, 1, no_probe, 20, 4, 1, 4, 1, 0.7, 0.3, left, 1, 0.3, 0.4, 0.6, 0.7, 1.4850563000654802, 0, , , 11.000000, 14.000000, 1.000000,2.000000,1.000000,6.000000,0.500000,1.000000
16, test, 1, probe, 21, 3, 1, 1, 3, 0.6, 0.3, right, 2, 0.3, 0.4, 0.6, 0.7, 1.0954040000215173, 1, 99.99981689453125, 2.0166444000788033, 12.000000, 15.000000, 2.000000,2.000000,1.000000,6.000000,0.500000,1.000000
16, test, 1, no_probe, 22, 4, 1, 1, 4, 0.7, 0.3, right, 2, 0.3, 0.4, 0.6, 0.7, 1.9226060999790207, 1, , , 13.000000, 16.000000, 1.000000,3.000000,1.000000,6.000000,0.500000,1.000000
16, test, 1, no_probe, 23, 4, 3, 3, 4, 0.7, 0.6, right, 2, 0.3, 0.4, 0.6, 0.7, 1.3236024000216275, 1, , , 14.000000, 17.000000, 2.000000,3.000000,1.000000,6.000000,0.500000,1.000000
16, test, 1, probe, 24, 1, 4, 4, 1, 0.3, 0.7, right, 2, 0.3, 0.4, 0.6, 0.7, 1.8892278999555856, 0, 99.9989013671875, 2.94990610005334, 14.000000, 17.000000, 3.000000,3.000000,1.000000,6.000000,0.500000,1.000000
16, test, 1, no_probe, 25, 1, 2, 1, 2, 0.3, 0.4, left, 1, 0.3, 0.4, 0.6, 0.7, 1.259455000050366, 0, , , 14.000000, 17.000000, 1.000000,3.000000,1.000000,6.000000,0.500000,1.000000
16, test, 2, no_probe, 1, 1, 3, 1, 3, 0.3, 0.6, left, 1, 0.3, 0.4, 0.6, 0.7, 1.3915469000348821, 0, , , 0.000000, 17.000000, 1.000000,2.000000,1.000000,6.000000,0.500000,1.000000
16, test, 2, probe, 2, 2, 4, 4, 2, 0.4, 0.7, right, 2, 0.3, 0.4, 0.6, 0.7, 0.9293426000513136, 1, 99.99984741210938, 2.1832861999282613, 1.000000, 18.000000, 2.000000,2.000000,1.000000,6.000000,0.500000,1.000000
16, test, 2, no_probe, 3, 4, 1, 1, 4, 0.7, 0.3, right, 2, 0.3, 0.4, 0.6, 0.7, 2.1335828999290243, 1, , , 2.000000, 19.000000, 1.000000,3.000000,1.000000,6.000000,0.500000,1.000000
16, test, 2, no_probe, 4, 1, 2, 1, 2, 0.3, 0.4, left, 1, 0.3, 0.4, 0.6, 0.7, 2.6981599000282586, 0, , , 2.000000, 19.000000, 2.000000,3.000000,1.000000,6.000000,0.500000,1.000000
16, test, 2, probe, 5, 3, 4, 4, 3, 0.6, 0.7, right, 2, 0.3, 0.4, 0.6, 0.7, 1.3103257999755442, 1, 99.99984741210938, 1.816609299974516, 3.000000, 20.000000, 3.000000,3.000000,1.000000,6.000000,0.500000,1.000000
16, test, 2, no_probe, 6, 3, 2, 2, 3, 0.6, 0.4, right, 2, 0.3, 0.4, 0.6, 0.7, 2.7994343999307603, 0, , , 3.000000, 20.000000, 1.000000,3.000000,1.000000,6.000000,0.500000,1.000000
16, test, 2, no_probe, 7, 2, 3, 2, 3, 0.4, 0.6, left, 1, 0.3, 0.4, 0.6, 0.7, 1.7190609000390396, 0, , , 3.000000, 20.000000, 2.000000,3.000000,1.000000,6.000000,0.500000,1.000000
16, test, 2, probe, 8, 2, 1, 1, 2, 0.4, 0.3, right, 2, 0.3, 0.4, 0.6, 0.7, 1.325269200024195, 0, 99.9998779296875, 1.833308000001125, 3.000000, 20.000000, 3.000000,3.000000,1.000000,6.000000,0.500000,1.000000
16, test, 2, no_probe, 9, 3, 1, 3, 1, 0.6, 0.3, left, 1, 0.3, 0.4, 0.6, 0.7, 2.049634400056675, 0, , , 3.000000, 20.000000, 1.000000,2.000000,1.000000,6.000000,0.500000,1.000000
16, test, 2, probe, 10, 3, 4, 4, 3, 0.6, 0.7, right, 2, 0.3, 0.4, 0.6, 0.7, 1.018098400090821, 1, 99.99981689453125, 1.9000737000023946, 4.000000, 21.000000, 2.000000,2.000000,1.000000,6.000000,0.500000,1.000000
16, test, 2, no_probe, 11, 3, 2, 2, 3, 0.6, 0.4, right, 2, 0.3, 0.4, 0.6, 0.7, 1.2216090000001714, 1, , , 5.000000, 22.000000, 1.000000,2.000000,1.000000,6.000000,0.500000,1.000000
16, test, 2, probe, 12, 3, 1, 1, 3, 0.6, 0.3, right, 2, 0.3, 0.4, 0.6, 0.7, 0.7785928000230342, 1, 99.999755859375, 1.9332727999426425, 6.000000, 23.000000, 2.000000,2.000000,1.000000,6.000000,0.500000,1.000000
16, test, 2, no_probe, 13, 3, 4, 4, 3, 0.6, 0.7, right, 2, 0.3, 0.4, 0.6, 0.7, 0.6415285000111908, 1, , , 7.000000, 24.000000, 1.000000,2.000000,1.000000,6.000000,0.500000,1.000000
16, test, 2, probe, 14, 1, 4, 4, 1, 0.3, 0.7, right, 2, 0.3, 0.4, 0.6, 0.7, 2.0526382999960333, 0, 99.999755859375, 1.8666337999748066, 7.000000, 24.000000, 2.000000,2.000000,1.000000,6.000000,0.500000,1.000000
16, test, 2, no_probe, 15, 2, 4, 2, 4, 0.4, 0.7, left, 1, 0.3, 0.4, 0.6, 0.7, 1.8132144999690354, 0, , , 7.000000, 24.000000, 1.000000,2.000000,1.000000,6.000000,0.500000,1.000000
16, test, 2, probe, 16, 2, 3, 3, 2, 0.4, 0.6, right, 2, 0.3, 0.4, 0.6, 0.7, 1.8541879000840709, 1, 99.99981689453125, 1.9166018000105396, 8.000000, 25.000000, 2.000000,2.000000,1.000000,6.000000,0.500000,1.000000
16, test, 2, no_probe, 17, 2, 1, 1, 2, 0.4, 0.3, right, 2, 0.3, 0.4, 0.6, 0.7, 1.903859299956821, 0, , , 8.000000, 25.000000, 1.000000,2.000000,1.000000,6.000000,0.500000,1.000000
16, test, 2, probe, 18, 3, 1, 1, 3, 0.6, 0.3, right, 2, 0.3, 0.4, 0.6, 0.7, 0.70076049992349, 0, 99.99984741210938, 1.7999566999496892, 8.000000, 25.000000, 2.000000,2.000000,1.000000,6.000000,0.500000,1.000000
16, test, 2, no_probe, 19, 4, 1, 1, 4, 0.7, 0.3, right, 2, 0.3, 0.4, 0.6, 0.7, 2.85975469998084, 1, , , 9.000000, 26.000000, 1.000000,3.000000,1.000000,6.000000,0.500000,1.000000
16, test, 2, no_probe, 20, 4, 2, 2, 4, 0.7, 0.4, right, 2, 0.3, 0.4, 0.6, 0.7, 1.4446974999736995, 1, , , 10.000000, 27.000000, 2.000000,3.000000,1.000000,6.000000,0.500000,1.000000
16, test, 2, probe, 21, 4, 3, 3, 4, 0.7, 0.6, right, 2, 0.3, 0.4, 0.6, 0.7, 0.9913393999449909, 1, 100, 1.9166578000877053, 11.000000, 28.000000, 3.000000,3.000000,1.000000,6.000000,0.500000,1.000000
16, test, 2, no_probe, 22, 2, 1, 1, 2, 0.4, 0.3, right, 2, 0.3, 0.4, 0.6, 0.7, 1.1360518999863416, 1, , , 12.000000, 29.000000, 1.000000,3.000000,1.000000,6.000000,0.500000,1.000000
16, test, 2, no_probe, 23, 3, 2, 2, 3, 0.6, 0.4, right, 2, 0.3, 0.4, 0.6, 0.7, 1.0236276000505313, 1, , , 13.000000, 30.000000, 2.000000,3.000000,1.000000,6.000000,0.500000,1.000000
16, test, 2, probe, 24, 4, 2, 2, 4, 0.7, 0.4, right, 2, 0.3, 0.4, 0.6, 0.7, 2.7204528999282047, 1, 99.99981689453125, 1.8999854000285268, 14.000000, 31.000000, 3.000000,3.000000,1.000000,6.000000,0.500000,1.000000
16, test, 2, no_probe, 25, 2, 1, 1, 2, 0.4, 0.3, right, 2, 0.3, 0.4, 0.6, 0.7, 1.350744399940595, 0, , , 14.000000, 31.000000, 1.000000,2.000000,1.000000,6.000000,0.500000,1.000000
16, test, 3, no_probe, 1, 1, 2, 2, 1, 0.3, 0.4, right, 2, 0.3, 0.4, 0.6, 0.7, 1.4911111000692472, 1, , , 1.000000, 32.000000, 1.000000,3.000000,1.000000,6.000000,0.500000,1.000000
16, test, 3, no_probe, 2, 4, 2, 2, 4, 0.7, 0.4, right, 2, 0.3, 0.4, 0.6, 0.7, 1.68871749995742, 1, , , 2.000000, 33.000000, 2.000000,3.000000,1.000000,6.000000,0.500000,1.000000
16, test, 3, probe, 3, 3, 2, 2, 3, 0.6, 0.4, right, 2, 0.3, 0.4, 0.6, 0.7, 1.2081387999933213, 1, 99.99978637695312, 1.8162911999970675, 3.000000, 34.000000, 3.000000,3.000000,1.000000,6.000000,0.500000,1.000000
16, test, 3, no_probe, 4, 4, 2, 2, 4, 0.7, 0.4, right, 2, 0.3, 0.4, 0.6, 0.7, 1.2230121999746189, 1, , , 4.000000, 35.000000, 1.000000,3.000000,1.000000,6.000000,0.500000,1.000000
16, test, 3, no_probe, 5, 4, 3, 3, 4, 0.7, 0.6, right, 2, 0.3, 0.4, 0.6, 0.7, 1.2846564000938088, 0, , , 4.000000, 35.000000, 2.000000,3.000000,1.000000,6.000000,0.500000,1.000000
16, test, 3, probe, 6, 4, 2, 2, 4, 0.7, 0.4, right, 2, 0.3, 0.4, 0.6, 0.7, 0.6466189000057057, 0, 99.99978637695312, 2.0499734000768512, 4.000000, 35.000000, 3.000000,3.000000,1.000000,6.000000,0.500000,1.000000
16, test, 3, no_probe, 7, 1, 3, 1, 3, 0.3, 0.6, left, 1, 0.3, 0.4, 0.6, 0.7, 1.9292691999580711, 0, , , 4.000000, 35.000000, 1.000000,3.000000,1.000000,6.000000,0.500000,1.000000
16, test, 3, no_probe, 8, 2, 1, 1, 2, 0.4, 0.3, right, 2, 0.3, 0.4, 0.6, 0.7, 1.1506058999802917, 0, , , 4.000000, 35.000000, 2.000000,3.000000,1.000000,6.000000,0.500000,1.000000
16, test, 3, probe, 9, 3, 2, 2, 3, 0.6, 0.4, right, 2, 0.3, 0.4, 0.6, 0.7, 1.909876300022006, 1, 99.99981689453125, 1.7499937999527901, 5.000000, 36.000000, 3.000000,3.000000,1.000000,6.000000,0.500000,1.000000
16, test, 3, no_probe, 10, 1, 3, 3, 1, 0.3, 0.6, right, 2, 0.3, 0.4, 0.6, 0.7, 0.6954494999954477, 0, , , 5.000000, 36.000000, 1.000000,2.000000,1.000000,6.000000,0.500000,1.000000
16, test, 3, probe, 11, 3, 4, 4, 3, 0.6, 0.7, right, 2, 0.3, 0.4, 0.6, 0.7, 2.569641500012949, 1, 99.99981689453125, 1.8166512999450788, 6.000000, 37.000000, 2.000000,2.000000,1.000000,6.000000,0.500000,1.000000
16, test, 3, no_probe, 12, 3, 2, 2, 3, 0.6, 0.4, right, 2, 0.3, 0.4, 0.6, 0.7, 1.3209648999618366, 1, , , 7.000000, 38.000000, 1.000000,2.000000,1.000000,6.000000,0.500000,1.000000
16, test, 3, probe, 13, 1, 2, 2, 1, 0.3, 0.4, right, 2, 0.3, 0.4, 0.6, 0.7, 0.5541213999968022, 1, 99.9998779296875, 1.699956100084819, 8.000000, 39.000000, 2.000000,2.000000,1.000000,6.000000,0.500000,1.000000
16, test, 3, no_probe, 14, 4, 2, 2, 4, 0.7, 0.4, right, 2, 0.3, 0.4, 0.6, 0.7, 1.6395426000235602, 0, , , 8.000000, 39.000000, 1.000000,3.000000,1.000000,6.000000,0.500000,1.000000
16, test, 3, no_probe, 15, 4, 1, 1, 4, 0.7, 0.3, right, 2, 0.3, 0.4, 0.6, 0.7, 1.8716228000121191, 0, , , 8.000000, 39.000000, 2.000000,3.000000,1.000000,6.000000,0.500000,1.000000
16, test, 3, probe, 16, 2, 4, 4, 2, 0.4, 0.7, right, 2, 0.3, 0.4, 0.6, 0.7, 5.24812399991788, 1, 99.99984741210938, 1.733349599991925, 9.000000, 40.000000, 3.000000,3.000000,1.000000,6.000000,0.500000,1.000000
16, test, 3, no_probe, 17, 1, 4, 4, 1, 0.3, 0.7, right, 2, 0.3, 0.4, 0.6, 0.7, 0.5440680999308825, 0, , , 9.000000, 40.000000, 1.000000,3.000000,1.000000,6.000000,0.500000,1.000000
16, test, 3, no_probe, 18, 1, 3, 3, 1, 0.3, 0.6, right, 2, 0.3, 0.4, 0.6, 0.7, 1.4352964999852702, 0, , , 9.000000, 40.000000, 2.000000,3.000000,1.000000,6.000000,0.500000,1.000000
16, test, 3, probe, 19, 3, 4, 3, 4, 0.6, 0.7, left, 1, 0.3, 0.4, 0.6, 0.7, 1.540097099961713, 0, 99.99981689453125, 1.7166504000779241, 9.000000, 40.000000, 3.000000,3.000000,1.000000,6.000000,0.500000,1.000000
16, test, 3, no_probe, 20, 2, 1, 1, 2, 0.4, 0.3, right, 2, 0.3, 0.4, 0.6, 0.7, 2.84237289999146, 1, , , 10.000000, 41.000000, 1.000000,2.000000,1.000000,6.000000,0.500000,1.000000
16, test, 3, probe, 21, 3, 2, 3, 2, 0.6, 0.4, left, 1, 0.3, 0.4, 0.6, 0.7, 1.3653682000003755, 0, 99.99978637695312, 1.716597200022079, 10.000000, 41.000000, 2.000000,2.000000,1.000000,6.000000,0.500000,1.000000
16, test, 3, no_probe, 22, 2, 4, 4, 2, 0.4, 0.7, right, 2, 0.3, 0.4, 0.6, 0.7, 1.4894134999485686, 1, , , 11.000000, 42.000000, 1.000000,3.000000,1.000000,6.000000,0.500000,1.000000
16, test, 3, no_probe, 23, 2, 3, 3, 2, 0.4, 0.6, right, 2, 0.3, 0.4, 0.6, 0.7, 1.5078092999756336, 0, , , 11.000000, 42.000000, 2.000000,3.000000,1.000000,6.000000,0.500000,1.000000
16, test, 3, probe, 24, 2, 4, 4, 2, 0.4, 0.7, right, 2, 0.3, 0.4, 0.6, 0.7, 3.8850622000172734, 0, 99.999755859375, 1.9999468999449164, 11.000000, 42.000000, 3.000000,3.000000,1.000000,6.000000,0.500000,1.000000
16, test, 3, no_probe, 25, 2, 3, 3, 2, 0.4, 0.6, right, 2, 0.3, 0.4, 0.6, 0.7, 1.5744146999204531, 1, , , 12.000000, 43.000000, 1.000000,2.000000,1.000000,6.000000,0.500000,1.000000
16, test, 4, no_probe, 1, 1, 2, 2, 1, 0.3, 0.4, right, 2, 0.3, 0.4, 0.6, 0.7, 0.6364840999012813, 1, , , 1.000000, 44.000000, 1.000000,3.000000,1.000000,6.000000,0.500000,1.000000
16, test, 4, no_probe, 2, 1, 3, 3, 1, 0.3, 0.6, right, 2, 0.3, 0.4, 0.6, 0.7, 0.8173310999991372, 1, , , 2.000000, 45.000000, 2.000000,3.000000,1.000000,6.000000,0.500000,1.000000
16, test, 4, probe, 3, 4, 2, 4, 2, 0.7, 0.4, left, 1, 0.3, 0.4, 0.6, 0.7, 2.421617400017567, 1, 99.99981689453125, 1.8163806999800727, 3.000000, 46.000000, 3.000000,3.000000,1.000000,6.000000,0.500000,1.000000
16, test, 4, no_probe, 4, 3, 4, 3, 4, 0.6, 0.7, left, 1, 0.3, 0.4, 0.6, 0.7, 1.6972348000854254, 0, , , 3.000000, 46.000000, 1.000000,3.000000,1.000000,6.000000,0.500000,1.000000
16, test, 4, no_probe, 5, 1, 3, 1, 3, 0.3, 0.6, left, 1, 0.3, 0.4, 0.6, 0.7, 1.4469341998919845, 1, , , 4.000000, 47.000000, 2.000000,3.000000,1.000000,6.000000,0.500000,1.000000
16, test, 4, probe, 6, 4, 2, 4, 2, 0.7, 0.4, left, 1, 0.3, 0.4, 0.6, 0.7, 0.8384219999425113, 1, 99.99984741210938, 1.7833266000961885, 5.000000, 48.000000, 3.000000,3.000000,1.000000,6.000000,0.500000,1.000000
16, test, 4, no_probe, 7, 3, 4, 4, 3, 0.6, 0.7, right, 2, 0.3, 0.4, 0.6, 0.7, 0.9173738999525085, 1, , , 6.000000, 49.000000, 1.000000,2.000000,1.000000,6.000000,0.500000,1.000000
16, test, 4, probe, 8, 2, 3, 3, 2, 0.4, 0.6, right, 2, 0.3, 0.4, 0.6, 0.7, 3.240809899987653, 0, 99.1444091796875, 2.0999761999119073, 6.000000, 49.000000, 2.000000,2.000000,1.000000,6.000000,0.500000,1.000000
16, test, 4, no_probe, 9, 1, 4, 4, 1, 0.3, 0.7, right, 2, 0.3, 0.4, 0.6, 0.7, 1.5607941000489518, 0, , , 6.000000, 49.000000, 1.000000,2.000000,1.000000,6.000000,0.500000,1.000000
16, test, 4, probe, 10, 1, 3, 3, 1, 0.3, 0.6, right, 2, 0.3, 0.4, 0.6, 0.7, 0.7962268000701442, 0, 99.99984741210938, 1.7166663999669254, 6.000000, 49.000000, 2.000000,2.000000,1.000000,6.000000,0.500000,1.000000
16, test, 4, no_probe, 11, 2, 3, 2, 3, 0.4, 0.6, left, 1, 0.3, 0.4, 0.6, 0.7, 2.499268600018695, 1, , , 7.000000, 50.000000, 1.000000,2.000000,1.000000,6.000000,0.500000,1.000000
16, test, 4, probe, 12, 1, 2, 2, 1, 0.3, 0.4, right, 2, 0.3, 0.4, 0.6, 0.7, 1.156263199984096, 0, 86.7431640625, 2.6333414999535307, 7.000000, 50.000000, 2.000000,2.000000,1.000000,6.000000,0.500000,1.000000
16, test, 4, no_probe, 13, 1, 4, 4, 1, 0.3, 0.7, right, 2, 0.3, 0.4, 0.6, 0.7, 1.6691344999708235, 0, , , 7.000000, 50.000000, 1.000000,2.000000,1.000000,6.000000,0.500000,1.000000
16, test, 4, probe, 14, 1, 3, 3, 1, 0.3, 0.6, right, 2, 0.3, 0.4, 0.6, 0.7, 2.036142299999483, 0, 99.99984741210938, 1.5832853999454528, 7.000000, 50.000000, 2.000000,2.000000,1.000000,6.000000,0.500000,1.000000
16, test, 4, no_probe, 15, 1, 2, 2, 1, 0.3, 0.4, right, 2, 0.3, 0.4, 0.6, 0.7, 1.8466516999760643, 0, , , 7.000000, 50.000000, 1.000000,2.000000,1.000000,6.000000,0.500000,1.000000
16, test, 4, probe, 16, 2, 3, 2, 3, 0.4, 0.6, left, 1, 0.3, 0.4, 0.6, 0.7, 1.0663140999386087, 0, 87.79296875, 1.4332890999503434, 7.000000, 50.000000, 2.000000,2.000000,1.000000,6.000000,0.500000,1.000000
16, test, 4, no_probe, 17, 2, 1, 2, 1, 0.4, 0.3, left, 1, 0.3, 0.4, 0.6, 0.7, 1.5954597999807447, 1, , , 8.000000, 51.000000, 1.000000,3.000000,1.000000,6.000000,0.500000,1.000000
16, test, 4, no_probe, 18, 1, 3, 1, 3, 0.3, 0.6, left, 1, 0.3, 0.4, 0.6, 0.7, 1.4641575999557972, 1, , , 9.000000, 52.000000, 2.000000,3.000000,1.000000,6.000000,0.500000,1.000000
16, test, 4, probe, 19, 2, 1, 1, 2, 0.4, 0.3, right, 2, 0.3, 0.4, 0.6, 0.7, 1.5513558000093326, 1, 96.63552856445312, 1.6166404000250623, 10.000000, 53.000000, 3.000000,3.000000,1.000000,6.000000,0.500000,1.000000
16, test, 4, no_probe, 20, 4, 2, 4, 2, 0.7, 0.4, left, 1, 0.3, 0.4, 0.6, 0.7, 2.103542600059882, 0, , , 10.000000, 53.000000, 1.000000,2.000000,1.000000,6.000000,0.500000,1.000000
16, test, 4, probe, 21, 4, 1, 4, 1, 0.7, 0.3, left, 1, 0.3, 0.4, 0.6, 0.7, 1.7823816000018269, 1, 99.99990844726562, 2.1499829000094905, 11.000000, 54.000000, 2.000000,2.000000,1.000000,6.000000,0.500000,1.000000
16, test, 4, no_probe, 22, 4, 1, 1, 4, 0.7, 0.3, right, 2, 0.3, 0.4, 0.6, 0.7, 1.296144700027071, 0, , , 11.000000, 54.000000, 1.000000,3.000000,1.000000,6.000000,0.500000,1.000000
16, test, 4, no_probe, 23, 3, 4, 4, 3, 0.6, 0.7, right, 2, 0.3, 0.4, 0.6, 0.7, 1.7129442000295967, 1, , , 12.000000, 55.000000, 2.000000,3.000000,1.000000,6.000000,0.500000,1.000000
16, test, 4, probe, 24, 2, 3, 2, 3, 0.4, 0.6, left, 1, 0.3, 0.4, 0.6, 0.7, 2.2867928000632674, 0, 99.99984741210938, 1.7499492999631912, 12.000000, 55.000000, 3.000000,3.000000,1.000000,6.000000,0.500000,1.000000
16, test, 4, no_probe, 25, 3, 4, 3, 4, 0.6, 0.7, left, 1, 0.3, 0.4, 0.6, 0.7, 1.9406684000277892, 1, , , 13.000000, 56.000000, 1.000000,2.000000,1.000000,6.000000,0.500000,1.000000
16, test, 5, no_probe, 1, 1, 2, 1, 2, 0.3, 0.4, left, 1, 0.3, 0.4, 0.6, 0.7, 1.1873087000567466, 0, , , 0.000000, 56.000000, 1.000000,3.000000,1.000000,6.000000,0.500000,1.000000
16, test, 5, no_probe, 2, 2, 1, 1, 2, 0.4, 0.3, right, 2, 0.3, 0.4, 0.6, 0.7, 0.781400499981828, 0, , , 0.000000, 56.000000, 2.000000,3.000000,1.000000,6.000000,0.500000,1.000000
16, test, 5, probe, 3, 2, 1, 2, 1, 0.4, 0.3, left, 1, 0.3, 0.4, 0.6, 0.7, 1.6463164000306278, 0, 99.9998779296875, 1.866237800102681, 0.000000, 56.000000, 3.000000,3.000000,1.000000,6.000000,0.500000,1.000000
16, test, 5, no_probe, 4, 3, 1, 1, 3, 0.6, 0.3, right, 2, 0.3, 0.4, 0.6, 0.7, 2.2112472999142483, 0, , , 0.000000, 56.000000, 1.000000,3.000000,1.000000,6.000000,0.500000,1.000000
16, test, 5, no_probe, 5, 1, 3, 3, 1, 0.3, 0.6, right, 2, 0.3, 0.4, 0.6, 0.7, 0.7953401999548078, 0, , , 0.000000, 56.000000, 2.000000,3.000000,1.000000,6.000000,0.500000,1.000000
16, test, 5, probe, 6, 3, 2, 2, 3, 0.6, 0.4, right, 2, 0.3, 0.4, 0.6, 0.7, 2.1049230999778956, 0, 99.99978637695312, 1.7833136999979615, 0.000000, 56.000000, 3.000000,3.000000,1.000000,6.000000,0.500000,1.000000
16, test, 5, no_probe, 7, 1, 2, 2, 1, 0.3, 0.4, right, 2, 0.3, 0.4, 0.6, 0.7, 3.206070699961856, 0, , , 0.000000, 56.000000, 1.000000,2.000000,1.000000,6.000000,0.500000,1.000000
16, test, 5, probe, 8, 2, 1, 2, 1, 0.4, 0.3, left, 1, 0.3, 0.4, 0.6, 0.7, 0.8394018999533728, 0, 99.99984741210938, 1.8499674999620765, 0.000000, 56.000000, 2.000000,2.000000,1.000000,6.000000,0.500000,1.000000
16, test, 5, no_probe, 9, 2, 1, 2, 1, 0.4, 0.3, left, 1, 0.3, 0.4, 0.6, 0.7, 3.3282440999755636, 0, , , 0.000000, 56.000000, 1.000000,3.000000,1.000000,6.000000,0.500000,1.000000
16, test, 5, no_probe, 10, 2, 1, 1, 2, 0.4, 0.3, right, 2, 0.3, 0.4, 0.6, 0.7, 2.29964270000346, 0, , , 0.000000, 56.000000, 2.000000,3.000000,1.000000,6.000000,0.500000,1.000000
16, test, 5, probe, 11, 4, 2, 4, 2, 0.7, 0.4, left, 1, 0.3, 0.4, 0.6, 0.7, 1.4174176999367774, 0, 99.99984741210938, 1.783267499995418, 0.000000, 56.000000, 3.000000,3.000000,1.000000,6.000000,0.500000,1.000000
16, test, 5, no_probe, 12, 1, 2, 1, 2, 0.3, 0.4, left, 1, 0.3, 0.4, 0.6, 0.7, 1.0805310000432655, 1, , , 1.000000, 57.000000, 1.000000,3.000000,1.000000,6.000000,0.500000,1.000000
16, test, 5, no_probe, 13, 1, 4, 1, 4, 0.3, 0.7, left, 1, 0.3, 0.4, 0.6, 0.7, 1.1822983999736607, 1, , , 2.000000, 58.000000, 2.000000,3.000000,1.000000,6.000000,0.500000,1.000000
16, test, 5, probe, 14, 4, 2, 2, 4, 0.7, 0.4, right, 2, 0.3, 0.4, 0.6, 0.7, 1.6166556999087334, 1, 99.99981689453125, 1.7999635000014678, 3.000000, 59.000000, 3.000000,3.000000,1.000000,6.000000,0.500000,1.000000
16, test, 5, no_probe, 15, 2, 4, 2, 4, 0.4, 0.7, left, 1, 0.3, 0.4, 0.6, 0.7, 3.1052733999677002, 0, , , 3.000000, 59.000000, 1.000000,3.000000,1.000000,6.000000,0.500000,1.000000
16, test, 5, no_probe, 16, 1, 3, 3, 1, 0.3, 0.6, right, 2, 0.3, 0.4, 0.6, 0.7, 0.6173173000570387, 0, , , 3.000000, 59.000000, 2.000000,3.000000,1.000000,6.000000,0.500000,1.000000
16, test, 5, probe, 17, 1, 4, 1, 4, 0.3, 0.7, left, 1, 0.3, 0.4, 0.6, 0.7, 1.2057425000239164, 0, 90.92404174804688, 1.4832575999898836, 3.000000, 59.000000, 3.000000,3.000000,1.000000,6.000000,0.500000,1.000000
16, test, 5, no_probe, 18, 4, 2, 2, 4, 0.7, 0.4, right, 2, 0.3, 0.4, 0.6, 0.7, 1.368054399965331, 1, , , 4.000000, 60.000000, 1.000000,3.000000,1.000000,6.000000,0.500000,1.000000
16, test, 5, no_probe, 19, 1, 4, 1, 4, 0.3, 0.7, left, 1, 0.3, 0.4, 0.6, 0.7, 1.1133749999571592, 1, , , 5.000000, 61.000000, 2.000000,3.000000,1.000000,6.000000,0.500000,1.000000
16, test, 5, probe, 20, 4, 2, 4, 2, 0.7, 0.4, left, 1, 0.3, 0.4, 0.6, 0.7, 1.303754199994728, 1, 99.99984741210938, 1.7833075999515131, 6.000000, 62.000000, 3.000000,3.000000,1.000000,6.000000,0.500000,1.000000
16, test, 5, no_probe, 21, 1, 4, 4, 1, 0.3, 0.7, right, 2, 0.3, 0.4, 0.6, 0.7, 2.0844985999865457, 0, , , 6.000000, 62.000000, 1.000000,3.000000,1.000000,6.000000,0.500000,1.000000
16, test, 5, no_probe, 22, 4, 3, 4, 3, 0.7, 0.6, left, 1, 0.3, 0.4, 0.6, 0.7, 1.6014083999907598, 1, , , 7.000000, 63.000000, 2.000000,3.000000,1.000000,6.000000,0.500000,1.000000
16, test, 5, probe, 23, 4, 1, 1, 4, 0.7, 0.3, right, 2, 0.3, 0.4, 0.6, 0.7, 0.7874486000509933, 0, 99.99990844726562, 1.7333226000191644, 7.000000, 63.000000, 3.000000,3.000000,1.000000,6.000000,0.500000,1.000000
16, test, 5, no_probe, 24, 4, 1, 4, 1, 0.7, 0.3, left, 1, 0.3, 0.4, 0.6, 0.7, 2.194121200009249, 1, , , 8.000000, 64.000000, 1.000000,3.000000,1.000000,6.000000,0.500000,1.000000
16, test, 5, no_probe, 25, 4, 3, 4, 3, 0.7, 0.6, left, 1, 0.3, 0.4, 0.6, 0.7, 0.5168184000067413, 0, , , 8.000000, 64.000000, 2.000000,3.000000,1.000000,6.000000,0.500000,1.000000
16, test, 6, no_probe, 1, 1, 4, 4, 1, 0.3, 0.7, right, 2, 0.3, 0.4, 0.6, 0.7, 1.6478115000063553, 0, , , 0.000000, 64.000000, 1.000000,2.000000,1.000000,6.000000,0.500000,1.000000
16, test, 6, probe, 2, 3, 1, 3, 1, 0.6, 0.3, left, 1, 0.3, 0.4, 0.6, 0.7, 2.2017692000372335, 1, 99.50885009765625, 1.6833052999572828, 1.000000, 65.000000, 2.000000,2.000000,1.000000,6.000000,0.500000,1.000000
16, test, 6, no_probe, 3, 1, 2, 1, 2, 0.3, 0.4, left, 1, 0.3, 0.4, 0.6, 0.7, 1.7511663000332192, 1, , , 2.000000, 66.000000, 1.000000,2.000000,1.000000,6.000000,0.500000,1.000000
16, test, 6, probe, 4, 3, 1, 3, 1, 0.6, 0.3, left, 1, 0.3, 0.4, 0.6, 0.7, 1.1748883000109345, 1, 99.99984741210938, 1.716653799987398, 3.000000, 67.000000, 2.000000,2.000000,1.000000,6.000000,0.500000,1.000000
16, test, 6, no_probe, 5, 4, 1, 4, 1, 0.7, 0.3, left, 1, 0.3, 0.4, 0.6, 0.7, 2.271659299964085, 0, , , 3.000000, 67.000000, 1.000000,3.000000,1.000000,6.000000,0.500000,1.000000
16, test, 6, no_probe, 6, 1, 4, 1, 4, 0.3, 0.7, left, 1, 0.3, 0.4, 0.6, 0.7, 3.1412737999344245, 0, , , 3.000000, 67.000000, 2.000000,3.000000,1.000000,6.000000,0.500000,1.000000
16, test, 6, probe, 7, 3, 4, 4, 3, 0.6, 0.7, right, 2, 0.3, 0.4, 0.6, 0.7, 2.081088099977933, 1, 99.99972534179688, 1.833338600001298, 4.000000, 68.000000, 3.000000,3.000000,1.000000,6.000000,0.500000,1.000000
16, test, 6, no_probe, 8, 2, 1, 1, 2, 0.4, 0.3, right, 2, 0.3, 0.4, 0.6, 0.7, 1.6571115999249741, 1, , , 5.000000, 69.000000, 1.000000,2.000000,1.000000,6.000000,0.500000,1.000000
16, test, 6, probe, 9, 1, 4, 1, 4, 0.3, 0.7, left, 1, 0.3, 0.4, 0.6, 0.7, 2.025264000054449, 0, 99.99984741210938, 1.6999866999685764, 5.000000, 69.000000, 2.000000,2.000000,1.000000,6.000000,0.500000,1.000000
16, test, 6, no_probe, 10, 3, 2, 3, 2, 0.6, 0.4, left, 1, 0.3, 0.4, 0.6, 0.7, 3.1043177999090403, 0, , , 5.000000, 69.000000, 1.000000,3.000000,1.000000,6.000000,0.500000,1.000000
16, test, 6, no_probe, 11, 3, 1, 1, 3, 0.6, 0.3, right, 2, 0.3, 0.4, 0.6, 0.7, 0.9820112999295816, 1, , , 6.000000, 70.000000, 2.000000,3.000000,1.000000,6.000000,0.500000,1.000000
16, test, 6, probe, 12, 3, 1, 3, 1, 0.6, 0.3, left, 1, 0.3, 0.4, 0.6, 0.7, 0.8674278999678791, 0, 99.99978637695312, 1.6332875000080094, 6.000000, 70.000000, 3.000000,3.000000,1.000000,6.000000,0.500000,1.000000
16, test, 6, no_probe, 13, 3, 4, 4, 3, 0.6, 0.7, right, 2, 0.3, 0.4, 0.6, 0.7, 1.524780899984762, 1, , , 7.000000, 71.000000, 1.000000,2.000000,1.000000,6.000000,0.500000,1.000000
16, test, 6, probe, 14, 2, 3, 3, 2, 0.4, 0.6, right, 2, 0.3, 0.4, 0.6, 0.7, 1.3076981999911368, 1, 99.99966430664062, 1.8999768000794575, 8.000000, 72.000000, 2.000000,2.000000,1.000000,6.000000,0.500000,1.000000
16, test, 6, no_probe, 15, 3, 1, 1, 3, 0.6, 0.3, right, 2, 0.3, 0.4, 0.6, 0.7, 1.2693255000049248, 1, , , 9.000000, 73.000000, 1.000000,2.000000,1.000000,6.000000,0.500000,1.000000
16, test, 6, probe, 16, 3, 1, 3, 1, 0.6, 0.3, left, 1, 0.3, 0.4, 0.6, 0.7, 1.4522001000586897, 1, 99.99981689453125, 1.749987999908626, 10.000000, 74.000000, 2.000000,2.000000,1.000000,6.000000,0.500000,1.000000
16, test, 6, no_probe, 17, 2, 4, 4, 2, 0.4, 0.7, right, 2, 0.3, 0.4, 0.6, 0.7, 0.9623678999487311, 1, , , 11.000000, 75.000000, 1.000000,2.000000,1.000000,6.000000,0.500000,1.000000
16, test, 6, probe, 18, 2, 3, 2, 3, 0.4, 0.6, left, 1, 0.3, 0.4, 0.6, 0.7, 0.8137041999725625, 0, 99.999755859375, 1.766643000068143, 11.000000, 75.000000, 2.000000,2.000000,1.000000,6.000000,0.500000,1.000000
16, test, 6, no_probe, 19, 2, 3, 3, 2, 0.4, 0.6, right, 2, 0.3, 0.4, 0.6, 0.7, 0.9620401000138372, 1, , , 12.000000, 76.000000, 1.000000,3.000000,1.000000,6.000000,0.500000,1.000000
16, test, 6, no_probe, 20, 2, 1, 1, 2, 0.4, 0.3, right, 2, 0.3, 0.4, 0.6, 0.7, 0.8413986000232399, 1, , , 13.000000, 77.000000, 2.000000,3.000000,1.000000,6.000000,0.500000,1.000000
16, test, 6, probe, 21, 3, 1, 3, 1, 0.6, 0.3, left, 1, 0.3, 0.4, 0.6, 0.7, 1.062070499989204, 1, 99.99942016601562, 1.9666444999165833, 14.000000, 78.000000, 3.000000,3.000000,1.000000,6.000000,0.500000,1.000000
16, test, 6, no_probe, 22, 2, 3, 3, 2, 0.4, 0.6, right, 2, 0.3, 0.4, 0.6, 0.7, 0.8567880999762565, 1, , , 15.000000, 79.000000, 1.000000,2.000000,1.000000,6.000000,0.500000,1.000000
16, test, 6, probe, 23, 3, 1, 3, 1, 0.6, 0.3, left, 1, 0.3, 0.4, 0.6, 0.7, 0.7548690000548959, 0, 99.99957275390625, 1.8499901000177488, 15.000000, 79.000000, 2.000000,2.000000,1.000000,6.000000,0.500000,1.000000
16, test, 6, no_probe, 24, 4, 1, 1, 4, 0.7, 0.3, right, 2, 0.3, 0.4, 0.6, 0.7, 1.1828873999183998, 1, , , 16.000000, 80.000000, 1.000000,3.000000,1.000000,6.000000,0.500000,1.000000
16, test, 6, no_probe, 25, 2, 3, 3, 2, 0.4, 0.6, right, 2, 0.3, 0.4, 0.6, 0.7, 0.6973415999673307, 0, , , 16.000000, 80.000000, 2.000000,3.000000,1.000000,6.000000,0.500000,1.000000
16, test, 7, no_probe, 1, 4, 2, 2, 4, 0.7, 0.4, right, 2, 0.3, 0.4, 0.6, 0.7, 1.2212970999535173, 1, , , 1.000000, 81.000000, 1.000000,2.000000,1.000000,6.000000,0.500000,1.000000
16, test, 7, probe, 2, 3, 2, 2, 3, 0.6, 0.4, right, 2, 0.3, 0.4, 0.6, 0.7, 1.3820774999912828, 1, 99.99984741210938, 1.7333275000564754, 2.000000, 82.000000, 2.000000,2.000000,1.000000,6.000000,0.500000,1.000000
16, test, 7, no_probe, 3, 4, 2, 2, 4, 0.7, 0.4, right, 2, 0.3, 0.4, 0.6, 0.7, 0.9242690000683069, 1, , , 3.000000, 83.000000, 1.000000,3.000000,1.000000,6.000000,0.500000,1.000000
16, test, 7, no_probe, 4, 3, 1, 3, 1, 0.6, 0.3, left, 1, 0.3, 0.4, 0.6, 0.7, 2.432678500073962, 0, , , 3.000000, 83.000000, 2.000000,3.000000,1.000000,6.000000,0.500000,1.000000
16, test, 7, probe, 5, 3, 2, 3, 2, 0.6, 0.4, left, 1, 0.3, 0.4, 0.6, 0.7, 1.3535063000163063, 1, 99.99972534179688, 1.849961599917151, 4.000000, 84.000000, 3.000000,3.000000,1.000000,6.000000,0.500000,1.000000
16, test, 7, no_probe, 6, 3, 4, 3, 4, 0.6, 0.7, left, 1, 0.3, 0.4, 0.6, 0.7, 2.012881900067441, 1, , , 5.000000, 85.000000, 1.000000,2.000000,1.000000,6.000000,0.500000,1.000000
16, test, 7, probe, 7, 3, 2, 2, 3, 0.6, 0.4, right, 2, 0.3, 0.4, 0.6, 0.7, 1.0385393999749795, 0, 99.999755859375, 1.7000151000684127, 5.000000, 85.000000, 2.000000,2.000000,1.000000,6.000000,0.500000,1.000000
16, test, 7, no_probe, 8, 3, 1, 3, 1, 0.6, 0.3, left, 1, 0.3, 0.4, 0.6, 0.7, 1.013696699985303, 1, , , 6.000000, 86.000000, 1.000000,3.000000,1.000000,6.000000,0.500000,1.000000
16, test, 7, no_probe, 9, 3, 1, 3, 1, 0.6, 0.3, left, 1, 0.3, 0.4, 0.6, 0.7, 0.8026769999414682, 1, , , 7.000000, 87.000000, 2.000000,3.000000,1.000000,6.000000,0.500000,1.000000
16, test, 7, probe, 10, 1, 2, 2, 1, 0.3, 0.4, right, 2, 0.3, 0.4, 0.6, 0.7, 1.6997150999959558, 0, 99.99969482421875, 1.8999587999423966, 7.000000, 87.000000, 3.000000,3.000000,1.000000,6.000000,0.500000,1.000000
16, test, 7, no_probe, 11, 3, 1, 1, 3, 0.6, 0.3, right, 2, 0.3, 0.4, 0.6, 0.7, 3.5224835999542847, 0, , , 7.000000, 87.000000, 1.000000,3.000000,1.000000,6.000000,0.500000,1.000000
16, test, 7, no_probe, 12, 2, 1, 1, 2, 0.4, 0.3, right, 2, 0.3, 0.4, 0.6, 0.7, 1.707108399947174, 0, , , 7.000000, 87.000000, 2.000000,3.000000,1.000000,6.000000,0.500000,1.000000
16, test, 7, probe, 13, 4, 2, 2, 4, 0.7, 0.4, right, 2, 0.3, 0.4, 0.6, 0.7, 0.9966674000024796, 0, 81.65927124023438, 1.899976099957712, 7.000000, 87.000000, 3.000000,3.000000,1.000000,6.000000,0.500000,1.000000
16, test, 7, no_probe, 14, 4, 2, 4, 2, 0.7, 0.4, left, 1, 0.3, 0.4, 0.6, 0.7, 1.2407263000495732, 1, , , 8.000000, 88.000000, 1.000000,3.000000,1.000000,6.000000,0.500000,1.000000
16, test, 7, no_probe, 15, 3, 4, 3, 4, 0.6, 0.7, left, 1, 0.3, 0.4, 0.6, 0.7, 0.9807120999321342, 1, , , 9.000000, 89.000000, 2.000000,3.000000,1.000000,6.000000,0.500000,1.000000
16, test, 7, probe, 16, 3, 4, 3, 4, 0.6, 0.7, left, 1, 0.3, 0.4, 0.6, 0.7, 0.8946197000332177, 1, 99.842529296875, 1.6333001999882981, 10.000000, 90.000000, 3.000000,3.000000,1.000000,6.000000,0.500000,1.000000
16, test, 7, no_probe, 17, 4, 1, 1, 4, 0.7, 0.3, right, 2, 0.3, 0.4, 0.6, 0.7, 1.8544965999899432, 1, , , 11.000000, 91.000000, 1.000000,2.000000,1.000000,6.000000,0.500000,1.000000
16, test, 7, probe, 18, 1, 3, 3, 1, 0.3, 0.6, right, 2, 0.3, 0.4, 0.6, 0.7, 1.1256611000280827, 1, 99.99978637695312, 2.099941199994646, 12.000000, 92.000000, 2.000000,2.000000,1.000000,6.000000,0.500000,1.000000
16, test, 7, no_probe, 19, 1, 4, 4, 1, 0.3, 0.7, right, 2, 0.3, 0.4, 0.6, 0.7, 1.2921906999545172, 0, , , 12.000000, 92.000000, 1.000000,3.000000,1.000000,6.000000,0.500000,1.000000
16, test, 7, no_probe, 20, 1, 2, 2, 1, 0.3, 0.4, right, 2, 0.3, 0.4, 0.6, 0.7, 2.2586356999818236, 1, , , 13.000000, 93.000000, 2.000000,3.000000,1.000000,6.000000,0.500000,1.000000
16, test, 7, probe, 21, 3, 1, 1, 3, 0.6, 0.3, right, 2, 0.3, 0.4, 0.6, 0.7, 2.693736099987291, 1, 99.99981689453125, 1.7832879000343382, 14.000000, 94.000000, 3.000000,3.000000,1.000000,6.000000,0.500000,1.000000
16, test, 7, no_probe, 22, 3, 2, 3, 2, 0.6, 0.4, left, 1, 0.3, 0.4, 0.6, 0.7, 1.2311480999924242, 0, , , 14.000000, 94.000000, 1.000000,3.000000,1.000000,6.000000,0.500000,1.000000
16, test, 7, no_probe, 23, 1, 3, 3, 1, 0.3, 0.6, right, 2, 0.3, 0.4, 0.6, 0.7, 0.7035841000033543, 0, , , 14.000000, 94.000000, 2.000000,3.000000,1.000000,6.000000,0.500000,1.000000
16, test, 7, probe, 24, 4, 1, 1, 4, 0.7, 0.3, right, 2, 0.3, 0.4, 0.6, 0.7, 1.708567599998787, 0, 69.38031005859375, 1.6666622998891398, 14.000000, 94.000000, 3.000000,3.000000,1.000000,6.000000,0.500000,1.000000
16, test, 7, no_probe, 25, 4, 1, 1, 4, 0.7, 0.3, right, 2, 0.3, 0.4, 0.6, 0.7, 2.1900643999688327, 0, , , 14.000000, 94.000000, 1.000000,2.000000,1.000000,6.000000,0.500000,1.000000
16, test, 8, no_probe, 1, 4, 2, 2, 4, 0.7, 0.4, right, 2, 0.3, 0.4, 0.6, 0.7, 0.8762001000577584, 1, , , 1.000000, 95.000000, 1.000000,3.000000,1.000000,6.000000,0.500000,1.000000
16, test, 8, no_probe, 2, 4, 1, 1, 4, 0.7, 0.3, right, 2, 0.3, 0.4, 0.6, 0.7, 1.7123326999135315, 1, , , 2.000000, 96.000000, 2.000000,3.000000,1.000000,6.000000,0.500000,1.000000
16, test, 8, probe, 3, 4, 2, 4, 2, 0.7, 0.4, left, 1, 0.3, 0.4, 0.6, 0.7, 3.7514756000600755, 1, 99.99972534179688, 1.9495991999283433, 3.000000, 97.000000, 3.000000,3.000000,1.000000,6.000000,0.500000,1.000000
16, test, 8, no_probe, 4, 4, 2, 4, 2, 0.7, 0.4, left, 1, 0.3, 0.4, 0.6, 0.7, 1.1252615000121295, 1, , , 4.000000, 98.000000, 1.000000,2.000000,1.000000,6.000000,0.500000,1.000000
16, test, 8, probe, 5, 1, 2, 1, 2, 0.3, 0.4, left, 1, 0.3, 0.4, 0.6, 0.7, 4.091834699967876, 1, 99.99984741210938, 1.9666668000863865, 5.000000, 99.000000, 2.000000,2.000000,1.000000,6.000000,0.500000,1.000000
16, test, 8, no_probe, 6, 3, 2, 2, 3, 0.6, 0.4, right, 2, 0.3, 0.4, 0.6, 0.7, 1.658551000058651, 0, , , 5.000000, 99.000000, 1.000000,3.000000,1.000000,6.000000,0.500000,1.000000
16, test, 8, no_probe, 7, 1, 3, 3, 1, 0.3, 0.6, right, 2, 0.3, 0.4, 0.6, 0.7, 1.6629419999662787, 0, , , 5.000000, 99.000000, 2.000000,3.000000,1.000000,6.000000,0.500000,1.000000
16, test, 8, probe, 8, 4, 1, 4, 1, 0.7, 0.3, left, 1, 0.3, 0.4, 0.6, 0.7, 1.1045666000572965, 0, 99.99981689453125, 1.7999807000160217, 5.000000, 99.000000, 3.000000,3.000000,1.000000,6.000000,0.500000,1.000000
16, test, 8, no_probe, 9, 4, 3, 3, 4, 0.7, 0.6, right, 2, 0.3, 0.4, 0.6, 0.7, 2.2409302999731153, 1, , , 6.000000, 100.000000, 1.000000,2.000000,1.000000,6.000000,0.500000,1.000000
16, test, 8, probe, 10, 4, 3, 3, 4, 0.7, 0.6, right, 2, 0.3, 0.4, 0.6, 0.7, 0.5764560999814421, 1, 99.99981689453125, 1.8833066000370309, 7.000000, 101.000000, 2.000000,2.000000,1.000000,6.000000,0.500000,1.000000
16, test, 8, no_probe, 11, 1, 2, 2, 1, 0.3, 0.4, right, 2, 0.3, 0.4, 0.6, 0.7, 1.603770500048995, 0, , , 7.000000, 101.000000, 1.000000,2.000000,1.000000,6.000000,0.500000,1.000000
16, test, 8, probe, 12, 2, 3, 3, 2, 0.4, 0.6, right, 2, 0.3, 0.4, 0.6, 0.7, 2.441394599969499, 1, 99.99984741210938, 2.1666429999750108, 8.000000, 102.000000, 2.000000,2.000000,1.000000,6.000000,0.500000,1.000000
16, test, 8, no_probe, 13, 1, 3, 1, 3, 0.3, 0.6, left, 1, 0.3, 0.4, 0.6, 0.7, 2.83709349995479, 1, , , 9.000000, 103.000000, 1.000000,3.000000,1.000000,6.000000,0.500000,1.000000
16, test, 8, no_probe, 14, 1, 2, 1, 2, 0.3, 0.4, left, 1, 0.3, 0.4, 0.6, 0.7, 1.1603079000487924, 0, , , 9.000000, 103.000000, 2.000000,3.000000,1.000000,6.000000,0.500000,1.000000
16, test, 8, probe, 15, 2, 1, 2, 1, 0.4, 0.3, left, 1, 0.3, 0.4, 0.6, 0.7, 1.463825699989684, 1, 99.99978637695312, 1.9166444999864325, 10.000000, 104.000000, 3.000000,3.000000,1.000000,6.000000,0.500000,1.000000
16, test, 8, no_probe, 16, 4, 1, 1, 4, 0.7, 0.3, right, 2, 0.3, 0.4, 0.6, 0.7, 0.9363214999902993, 1, , , 11.000000, 105.000000, 1.000000,3.000000,1.000000,6.000000,0.500000,1.000000
16, test, 8, no_probe, 17, 1, 3, 1, 3, 0.3, 0.6, left, 1, 0.3, 0.4, 0.6, 0.7, 1.3410989000694826, 0, , , 11.000000, 105.000000, 2.000000,3.000000,1.000000,6.000000,0.500000,1.000000
16, test, 8, probe, 18, 3, 1, 1, 3, 0.6, 0.3, right, 2, 0.3, 0.4, 0.6, 0.7, 0.9086850999156013, 0, 99.99917602539062, 2.049989699968137, 11.000000, 105.000000, 3.000000,3.000000,1.000000,6.000000,0.500000,1.000000
16, test, 8, no_probe, 19, 2, 1, 1, 2, 0.4, 0.3, right, 2, 0.3, 0.4, 0.6, 0.7, 1.97839460009709, 1, , , 12.000000, 106.000000, 1.000000,2.000000,1.000000,6.000000,0.500000,1.000000
16, test, 8, probe, 20, 4, 3, 4, 3, 0.7, 0.6, left, 1, 0.3, 0.4, 0.6, 0.7, 0.8777993000112474, 0, 99.99984741210938, 2.0833329999586567, 12.000000, 106.000000, 2.000000,2.000000,1.000000,6.000000,0.500000,1.000000
16, test, 8, no_probe, 21, 2, 1, 2, 1, 0.4, 0.3, left, 1, 0.3, 0.4, 0.6, 0.7, 1.3860747000435367, 1, , , 13.000000, 107.000000, 1.000000,2.000000,1.000000,6.000000,0.500000,1.000000
16, test, 8, probe, 22, 4, 1, 1, 4, 0.7, 0.3, right, 2, 0.3, 0.4, 0.6, 0.7, 0.848031000001356, 1, 99.99957275390625, 2.716636300086975, 14.000000, 108.000000, 2.000000,2.000000,1.000000,6.000000,0.500000,1.000000
16, test, 8, no_probe, 23, 1, 3, 3, 1, 0.3, 0.6, right, 2, 0.3, 0.4, 0.6, 0.7, 2.6259030000073835, 0, , , 14.000000, 108.000000, 1.000000,2.000000,1.000000,6.000000,0.500000,1.000000
16, test, 8, probe, 24, 4, 2, 4, 2, 0.7, 0.4, left, 1, 0.3, 0.4, 0.6, 0.7, 1.0263528999639675, 1, 99.99981689453125, 1.8666685000061989, 15.000000, 109.000000, 2.000000,2.000000,1.000000,6.000000,0.500000,1.000000
16, test, 8, no_probe, 25, 3, 4, 3, 4, 0.6, 0.7, left, 1, 0.3, 0.4, 0.6, 0.7, 2.1630278000375256, 1, , , 16.000000, 110.000000, 1.000000,2.000000,1.000000,6.000000,0.500000,1.000000
