subject, block_type, block, thought probe, trial, chosen, unchosen, offer_left_image, offer_right_image, exp_value_chosen, exp_value_unchosen, choice_location, choice_key, exp_value1, exp_value2, exp_value3, exp_value4, RT, reward, vas, RT_vas, coins_per_block, coins_per_task, count_to_prob, ntrial_to_prob, ITI_duration,RT_deadline,choice_feedback_duration,outcome_duration
5, test, 1, no_probe, 1, 4, 2, 4, 2, 0.7, 0.4, left, 1, 0.3, 0.4, 0.6, 0.7, 0.5882846999447793, 0, , , 0.000000, 0.000000, 1.000000,2.000000,1.000000,6.000000,0.500000,1.000000
5, test, 1, probe, 2, 2, 1, 1, 2, 0.4, 0.3, right, 2, 0.3, 0.4, 0.6, 0.7, 0.5665950999828056, 1, 50.0, 4.316513800062239, 1.000000, 1.000000, 2.000000,2.000000,1.000000,6.000000,0.500000,1.000000
5, test, 1, no_probe, 3, 1, 4, 4, 1, 0.3, 0.7, right, 2, 0.3, 0.4, 0.6, 0.7, 3.109948500059545, 1, , , 2.000000, 2.000000, 1.000000,3.000000,1.000000,6.000000,0.500000,1.000000
5, test, 1, no_probe, 4, 2, 3, 3, 2, 0.4, 0.6, right, 2, 0.3, 0.4, 0.6, 0.7, 0.8362894000019878, 1, , , 3.000000, 3.000000, 2.000000,3.000000,1.000000,6.000000,0.500000,1.000000
5, test, 1, probe, 5, 3, 1, 3, 1, 0.6, 0.3, left, 1, 0.3, 0.4, 0.6, 0.7, 1.5566726999823004, 1, 95.88375854492188, 7.6331992000341415, 4.000000, 4.000000, 3.000000,3.000000,1.000000,6.000000,0.500000,1.000000
5, test, 1, no_probe, 6, 1, 3, 1, 3, 0.3, 0.6, left, 1, 0.3, 0.4, 0.6, 0.7, 1.0561717000091448, 0, , , 4.000000, 4.000000, 1.000000,3.000000,1.000000,6.000000,0.500000,1.000000
5, test, 1, no_probe, 1, 3, 2, 2, 3, 0.6, 0.4, right, 2, 0.3, 0.4, 0.6, 0.7, 0.5504568999167532, 0, , , 0.000000, 4.000000, 1.000000,2.000000,1.000000,6.000000,0.500000,1.000000
5, test, 1, probe, 2, 3, 4, 4, 3, 0.6, 0.7, right, 2, 0.3, 0.4, 0.6, 0.7, 0.4256126000545919, 1, 97.23483276367188, 4.649936700006947, 1.000000, 5.000000, 2.000000,2.000000,1.000000,6.000000,0.500000,1.000000
5, test, 1, no_probe, 3, 2, 3, 2, 3, 0.4, 0.6, left, 1, 0.3, 0.4, 0.6, 0.7, 1.0070830000331625, 1, , , 2.000000, 6.000000, 1.000000,2.000000,1.000000,6.000000,0.500000,1.000000
5, test, 1, probe, 4, 4, 3, 3, 4, 0.7, 0.6, right, 2, 0.3, 0.4, 0.6, 0.7, 0.44966899999417365, 0, 83.18527221679688, 6.066586800036021, 2.000000, 6.000000, 2.000000,2.000000,1.000000,6.000000,0.500000,1.000000
5, test, 1, no_probe, 5, 4, 2, 4, 2, 0.7, 0.4, left, 1, 0.3, 0.4, 0.6, 0.7, 0.5759647999657318, 1, , , 3.000000, 7.000000, 1.000000,2.000000,1.000000,6.000000,0.500000,1.000000
5, test, 1, probe, 6, 1, 2, 1, 2, 0.3, 0.4, left, 1, 0.3, 0.4, 0.6, 0.7, 0.9511862000217661, 1, 89.78976440429688, 4.8832892999053, 4.000000, 8.000000, 2.000000,2.000000,1.000000,6.000000,0.500000,1.000000
5, test, 1, no_probe, 7, 4, 3, 3, 4, 0.7, 0.6, right, 2, 0.3, 0.4, 0.6, 0.7, 0.7748908000066876, 0, , , 4.000000, 8.000000, 1.000000,2.000000,1.000000,6.000000,0.500000,1.000000
5, test, 1, probe, 8, 2, 4, 2, 4, 0.4, 0.7, left, 1, 0.3, 0.4, 0.6, 0.7, 0.3969570000190288, 0, 45.133270263671875, 6.0332428000401706, 4.000000, 8.000000, 2.000000,2.000000,1.000000,6.000000,0.500000,1.000000
5, test, 1, no_probe, 9, 1, 4, 4, 1, 0.3, 0.7, right, 2, 0.3, 0.4, 0.6, 0.7, 0.8281524000922218, 0, , , 4.000000, 8.000000, 1.000000,3.000000,1.000000,6.000000,0.500000,1.000000
5, test, 1, no_probe, 10, 2, 3, 2, 3, 0.4, 0.6, left, 1, 0.3, 0.4, 0.6, 0.7, 0.4307713001035154, 1, , , 5.000000, 9.000000, 2.000000,3.000000,1.000000,6.000000,0.500000,1.000000
5, test, 1, probe, 11, 1, 4, 1, 4, 0.3, 0.7, left, 1, 0.3, 0.4, 0.6, 0.7, 1.0757337000686675, 1, 74.38742065429688, 1.7832881000358611, 6.000000, 10.000000, 3.000000,3.000000,1.000000,6.000000,0.500000,1.000000
5, test, 1, no_probe, 12, 1, 2, 1, 2, 0.3, 0.4, left, 1, 0.3, 0.4, 0.6, 0.7, 0.6898256000131369, 0, , , 6.000000, 10.000000, 1.000000,3.000000,1.000000,6.000000,0.500000,1.000000
5, test, 1, no_probe, 13, 4, 3, 3, 4, 0.7, 0.6, right, 2, 0.3, 0.4, 0.6, 0.7, 0.5124804000370204, 1, , , 7.000000, 11.000000, 2.000000,3.000000,1.000000,6.000000,0.500000,1.000000
5, test, 1, probe, 14, 3, 4, 3, 4, 0.6, 0.7, left, 1, 0.3, 0.4, 0.6, 0.7, 0.4404461000813171, 1, 49.998291015625, 0.9333169999299571, 8.000000, 12.000000, 3.000000,3.000000,1.000000,6.000000,0.500000,1.000000
5, test, 1, no_probe, 15, 4, 3, 4, 3, 0.7, 0.6, left, 1, 0.3, 0.4, 0.6, 0.7, 1.8930209999671206, 1, , , 9.000000, 13.000000, 1.000000,3.000000,1.000000,6.000000,0.500000,1.000000
5, test, 1, no_probe, 16, 1, 3, 3, 1, 0.3, 0.6, right, 2, 0.3, 0.4, 0.6, 0.7, 0.40416109992656857, 1, , , 10.000000, 14.000000, 2.000000,3.000000,1.000000,6.000000,0.500000,1.000000
5, test, 1, probe, 17, 3, 2, 3, 2, 0.6, 0.4, left, 1, 0.3, 0.4, 0.6, 0.7, 0.4381169999251142, 1, 83.1561279296875, 3.0499766999855638, 11.000000, 15.000000, 3.000000,3.000000,1.000000,6.000000,0.500000,1.000000
5, test, 1, no_probe, 18, 4, 2, 2, 4, 0.7, 0.4, right, 2, 0.3, 0.4, 0.6, 0.7, 0.8132239999249578, 1, , , 12.000000, 16.000000, 1.000000,3.000000,1.000000,6.000000,0.500000,1.000000
5, test, 1, no_probe, 19, 3, 2, 3, 2, 0.6, 0.4, left, 1, 0.3, 0.4, 0.6, 0.7, 0.38347360002808273, 1, , , 13.000000, 17.000000, 2.000000,3.000000,1.000000,6.000000,0.500000,1.000000
5, test, 1, probe, 20, 4, 3, 3, 4, 0.7, 0.6, right, 2, 0.3, 0.4, 0.6, 0.7, 0.5246261999709532, 1, 74.04049682617188, 2.48330329998862, 14.000000, 18.000000, 3.000000,3.000000,1.000000,6.000000,0.500000,1.000000
5, test, 1, no_probe, 21, 3, 1, 1, 3, 0.6, 0.3, right, 2, 0.3, 0.4, 0.6, 0.7, 0.5836986999493092, 1, , , 15.000000, 19.000000, 1.000000,3.000000,1.000000,6.000000,0.500000,1.000000
5, test, 1, no_probe, 22, 4, 1, 4, 1, 0.7, 0.3, left, 1, 0.3, 0.4, 0.6, 0.7, 0.44733989995438606, 1, , , 16.000000, 20.000000, 2.000000,3.000000,1.000000,6.000000,0.500000,1.000000
5, test, 1, probe, 23, 3, 1, 1, 3, 0.6, 0.3, right, 2, 0.3, 0.4, 0.6, 0.7, 0.5062716000247747, 1, 75.3470458984375, 3.3166128000011668, 17.000000, 21.000000, 3.000000,3.000000,1.000000,6.000000,0.500000,1.000000
5, test, 1, no_probe, 24, 4, 2, 2, 4, 0.7, 0.4, right, 2, 0.3, 0.4, 0.6, 0.7, 0.5134020999539644, 0, , , 17.000000, 21.000000, 1.000000,3.000000,1.000000,6.000000,0.500000,1.000000
5, test, 1, no_probe, 25, 3, 2, 3, 2, 0.6, 0.4, left, 1, 0.3, 0.4, 0.6, 0.7, 0.3975025999825448, 0, , , 17.000000, 21.000000, 2.000000,3.000000,1.000000,6.000000,0.500000,1.000000
5, test, 2, no_probe, 1, 2, 4, 4, 2, 0.4, 0.7, right, 2, 0.3, 0.4, 0.6, 0.7, 0.48030799999833107, 0, , , 0.000000, 21.000000, 1.000000,3.000000,1.000000,6.000000,0.500000,1.000000
5, test, 2, no_probe, 2, 1, 2, 1, 2, 0.3, 0.4, left, 1, 0.3, 0.4, 0.6, 0.7, 0.3952391999773681, 0, , , 0.000000, 21.000000, 2.000000,3.000000,1.000000,6.000000,0.500000,1.000000
5, test, 2, probe, 3, 4, 1, 1, 4, 0.7, 0.3, right, 2, 0.3, 0.4, 0.6, 0.7, 0.3509067000122741, 1, 74.02987670898438, 2.6661593000171706, 1.000000, 22.000000, 3.000000,3.000000,1.000000,6.000000,0.500000,1.000000
5, test, 2, no_probe, 4, 1, 3, 1, 3, 0.3, 0.6, left, 1, 0.3, 0.4, 0.6, 0.7, 0.5157271000789478, 1, , , 2.000000, 23.000000, 1.000000,3.000000,1.000000,6.000000,0.500000,1.000000
5, test, 2, no_probe, 5, 3, 1, 1, 3, 0.6, 0.3, right, 2, 0.3, 0.4, 0.6, 0.7, 0.35145469999406487, 1, , , 3.000000, 24.000000, 2.000000,3.000000,1.000000,6.000000,0.500000,1.000000
5, test, 2, probe, 6, 1, 2, 1, 2, 0.3, 0.4, left, 1, 0.3, 0.4, 0.6, 0.7, 0.3344620999414474, 0, 73.51535034179688, 2.2999791000038385, 3.000000, 24.000000, 3.000000,3.000000,1.000000,6.000000,0.500000,1.000000
5, test, 2, no_probe, 7, 3, 1, 1, 3, 0.6, 0.3, right, 2, 0.3, 0.4, 0.6, 0.7, 1.373503700015135, 1, , , 4.000000, 25.000000, 1.000000,2.000000,1.000000,6.000000,0.500000,1.000000
5, test, 2, probe, 8, 4, 1, 4, 1, 0.7, 0.3, left, 1, 0.3, 0.4, 0.6, 0.7, 0.3838593000546098, 0, 58.642364501953125, 4.183251500013284, 4.000000, 25.000000, 2.000000,2.000000,1.000000,6.000000,0.500000,1.000000
5, test, 2, no_probe, 9, 2, 4, 4, 2, 0.4, 0.7, right, 2, 0.3, 0.4, 0.6, 0.7, 1.6615414000116289, 0, , , 4.000000, 25.000000, 1.000000,2.000000,1.000000,6.000000,0.500000,1.000000
5, test, 2, probe, 10, 3, 2, 3, 2, 0.6, 0.4, left, 1, 0.3, 0.4, 0.6, 0.7, 1.465115200029686, 0, 39.262664794921875, 3.8500079999212176, 4.000000, 25.000000, 2.000000,2.000000,1.000000,6.000000,0.500000,1.000000
5, test, 2, no_probe, 11, 2, 1, 1, 2, 0.4, 0.3, right, 2, 0.3, 0.4, 0.6, 0.7, 1.4966609999537468, 1, , , 5.000000, 26.000000, 1.000000,3.000000,1.000000,6.000000,0.500000,1.000000
5, test, 2, no_probe, 12, 1, 4, 1, 4, 0.3, 0.7, left, 1, 0.3, 0.4, 0.6, 0.7, 0.3489115999545902, 1, , , 6.000000, 27.000000, 2.000000,3.000000,1.000000,6.000000,0.500000,1.000000
5, test, 2, probe, 13, 4, 3, 3, 4, 0.7, 0.6, right, 2, 0.3, 0.4, 0.6, 0.7, 0.32564599998295307, 1, 71.49478149414062, 5.8499162999214604, 7.000000, 28.000000, 3.000000,3.000000,1.000000,6.000000,0.500000,1.000000
5, test, 2, no_probe, 14, 4, 3, 4, 3, 0.7, 0.6, left, 1, 0.3, 0.4, 0.6, 0.7, 0.37519589997828007, 1, , , 8.000000, 29.000000, 1.000000,2.000000,1.000000,6.000000,0.500000,1.000000
5, test, 2, probe, 15, 4, 2, 2, 4, 0.7, 0.4, right, 2, 0.3, 0.4, 0.6, 0.7, 0.24066660006064922, 1, 73.125732421875, 2.4332985000219196, 9.000000, 30.000000, 2.000000,2.000000,1.000000,6.000000,0.500000,1.000000
5, test, 2, no_probe, 16, 4, 2, 2, 4, 0.7, 0.4, right, 2, 0.3, 0.4, 0.6, 0.7, 1.1063242999371141, 1, , , 10.000000, 31.000000, 1.000000,2.000000,1.000000,6.000000,0.500000,1.000000
5, test, 2, probe, 17, 2, 3, 2, 3, 0.4, 0.6, left, 1, 0.3, 0.4, 0.6, 0.7, 0.47105259995441884, 0, 63.33758544921875, 3.283280699979514, 10.000000, 31.000000, 2.000000,2.000000,1.000000,6.000000,0.500000,1.000000
5, test, 2, no_probe, 18, 4, 3, 4, 3, 0.7, 0.6, left, 1, 0.3, 0.4, 0.6, 0.7, 0.5665221000090241, 1, , , 11.000000, 32.000000, 1.000000,3.000000,1.000000,6.000000,0.500000,1.000000
5, test, 2, no_probe, 19, 4, 2, 4, 2, 0.7, 0.4, left, 1, 0.3, 0.4, 0.6, 0.7, 0.5959567999234423, 1, , , 12.000000, 33.000000, 2.000000,3.000000,1.000000,6.000000,0.500000,1.000000
5, test, 2, probe, 20, 4, 2, 2, 4, 0.7, 0.4, right, 2, 0.3, 0.4, 0.6, 0.7, 0.4331458000233397, 0, 66.67843627929688, 3.1166557000251487, 12.000000, 33.000000, 3.000000,3.000000,1.000000,6.000000,0.500000,1.000000
5, test, 2, no_probe, 21, 4, 1, 1, 4, 0.7, 0.3, right, 2, 0.3, 0.4, 0.6, 0.7, 0.952771499985829, 1, , , 13.000000, 34.000000, 1.000000,2.000000,1.000000,6.000000,0.500000,1.000000
5, test, 2, probe, 22, 3, 1, 3, 1, 0.6, 0.3, left, 1, 0.3, 0.4, 0.6, 0.7, 0.695799000095576, 1, 66.6505126953125, 2.1666594999842346, 14.000000, 35.000000, 2.000000,2.000000,1.000000,6.000000,0.500000,1.000000
5, test, 2, no_probe, 23, 2, 4, 4, 2, 0.4, 0.7, right, 2, 0.3, 0.4, 0.6, 0.7, 0.8521979000652209, 0, , , 14.000000, 35.000000, 1.000000,2.000000,1.000000,6.000000,0.500000,1.000000
5, test, 2, probe, 24, 3, 1, 3, 1, 0.6, 0.3, left, 1, 0.3, 0.4, 0.6, 0.7, 0.4809432999463752, 1, 70.10589599609375, 1.666636100038886, 15.000000, 36.000000, 2.000000,2.000000,1.000000,6.000000,0.500000,1.000000
5, test, 2, no_probe, 25, 4, 2, 2, 4, 0.7, 0.4, right, 2, 0.3, 0.4, 0.6, 0.7, 0.7307871000375599, 0, , , 15.000000, 36.000000, 1.000000,2.000000,1.000000,6.000000,0.500000,1.000000
5, test, 3, no_probe, 1, 2, 1, 1, 2, 0.4, 0.3, right, 2, 0.3, 0.4, 0.6, 0.7, 0.47280400001909584, 0, , , 0.000000, 36.000000, 1.000000,2.000000,1.000000,6.000000,0.500000,1.000000
5, test, 3, probe, 2, 3, 1, 3, 1, 0.6, 0.3, left, 1, 0.3, 0.4, 0.6, 0.7, 0.39804060000460595, 1, 31.58343505859375, 4.5332016999600455, 1.000000, 37.000000, 2.000000,2.000000,1.000000,6.000000,0.500000,1.000000
5, test, 3, no_probe, 3, 1, 2, 2, 1, 0.3, 0.4, right, 2, 0.3, 0.4, 0.6, 0.7, 0.4288271999685094, 0, , , 1.000000, 37.000000, 1.000000,2.000000,1.000000,6.000000,0.500000,1.000000
5, test, 3, probe, 4, 1, 4, 1, 4, 0.3, 0.7, left, 1, 0.3, 0.4, 0.6, 0.7, 0.24105120007880032, 1, 64.3846435546875, 2.1666578999720514, 2.000000, 38.000000, 2.000000,2.000000,1.000000,6.000000,0.500000,1.000000
5, test, 3, no_probe, 5, 1, 4, 1, 4, 0.3, 0.7, left, 1, 0.3, 0.4, 0.6, 0.7, 0.8265748999547213, 0, , , 2.000000, 38.000000, 1.000000,3.000000,1.000000,6.000000,0.500000,1.000000
5, test, 3, no_probe, 6, 4, 2, 2, 4, 0.7, 0.4, right, 2, 0.3, 0.4, 0.6, 0.7, 0.3177260000957176, 1, , , 3.000000, 39.000000, 2.000000,3.000000,1.000000,6.000000,0.500000,1.000000
5, test, 3, probe, 7, 2, 3, 3, 2, 0.4, 0.6, right, 2, 0.3, 0.4, 0.6, 0.7, 1.079190899967216, 1, 81.60372924804688, 3.533297499991022, 4.000000, 40.000000, 3.000000,3.000000,1.000000,6.000000,0.500000,1.000000
5, test, 3, no_probe, 8, 2, 4, 2, 4, 0.4, 0.7, left, 1, 0.3, 0.4, 0.6, 0.7, 0.7752655000658706, 0, , , 4.000000, 40.000000, 1.000000,3.000000,1.000000,6.000000,0.500000,1.000000
5, test, 3, no_probe, 9, 2, 3, 3, 2, 0.4, 0.6, right, 2, 0.3, 0.4, 0.6, 0.7, 0.3364634000463411, 1, , , 5.000000, 41.000000, 2.000000,3.000000,1.000000,6.000000,0.500000,1.000000
5, test, 3, probe, 10, 2, 1, 1, 2, 0.4, 0.3, right, 2, 0.3, 0.4, 0.6, 0.7, 0.8685657000169158, 1, 68.4853515625, 1.7666382000315934, 6.000000, 42.000000, 3.000000,3.000000,1.000000,6.000000,0.500000,1.000000
5, test, 3, no_probe, 11, 2, 4, 4, 2, 0.4, 0.7, right, 2, 0.3, 0.4, 0.6, 0.7, 0.5841012999881059, 0, , , 6.000000, 42.000000, 1.000000,2.000000,1.000000,6.000000,0.500000,1.000000
5, test, 3, probe, 12, 2, 1, 1, 2, 0.4, 0.3, right, 2, 0.3, 0.4, 0.6, 0.7, 0.5691749999532476, 0, 76.02822875976562, 2.1332997999852523, 6.000000, 42.000000, 2.000000,2.000000,1.000000,6.000000,0.500000,1.000000
5, test, 3, no_probe, 13, 4, 3, 4, 3, 0.7, 0.6, left, 1, 0.3, 0.4, 0.6, 0.7, 0.44525979994796216, 1, , , 7.000000, 43.000000, 1.000000,3.000000,1.000000,6.000000,0.500000,1.000000
5, test, 3, no_probe, 14, 1, 2, 1, 2, 0.3, 0.4, left, 1, 0.3, 0.4, 0.6, 0.7, 0.6006010000128299, 1, , , 8.000000, 44.000000, 2.000000,3.000000,1.000000,6.000000,0.500000,1.000000
5, test, 3, probe, 15, 1, 4, 1, 4, 0.3, 0.7, left, 1, 0.3, 0.4, 0.6, 0.7, 0.46188550000078976, 1, 68.54714965820312, 2.2499510999768972, 9.000000, 45.000000, 3.000000,3.000000,1.000000,6.000000,0.500000,1.000000
5, test, 3, no_probe, 16, 1, 4, 4, 1, 0.3, 0.7, right, 2, 0.3, 0.4, 0.6, 0.7, 0.48206919990479946, 0, , , 9.000000, 45.000000, 1.000000,3.000000,1.000000,6.000000,0.500000,1.000000
5, test, 3, no_probe, 17, 1, 3, 1, 3, 0.3, 0.6, left, 1, 0.3, 0.4, 0.6, 0.7, 0.37700460001360625, 0, , , 9.000000, 45.000000, 2.000000,3.000000,1.000000,6.000000,0.500000,1.000000
5, test, 3, probe, 18, 2, 1, 2, 1, 0.4, 0.3, left, 1, 0.3, 0.4, 0.6, 0.7, 0.7502996999537572, 1, 81.8341064453125, 2.8999886999372393, 10.000000, 46.000000, 3.000000,3.000000,1.000000,6.000000,0.500000,1.000000
5, test, 3, no_probe, 19, 1, 3, 3, 1, 0.3, 0.6, right, 2, 0.3, 0.4, 0.6, 0.7, 0.676502599962987, 1, , , 11.000000, 47.000000, 1.000000,2.000000,1.000000,6.000000,0.500000,1.000000
5, test, 3, probe, 20, 2, 3, 2, 3, 0.4, 0.6, left, 1, 0.3, 0.4, 0.6, 0.7, 0.8587879000697285, 1, 66.66476440429688, 2.9499674000544474, 12.000000, 48.000000, 2.000000,2.000000,1.000000,6.000000,0.500000,1.000000
5, test, 3, no_probe, 21, 3, 1, 1, 3, 0.6, 0.3, right, 2, 0.3, 0.4, 0.6, 0.7, 0.9441881000529975, 1, , , 13.000000, 49.000000, 1.000000,3.000000,1.000000,6.000000,0.500000,1.000000
5, test, 3, no_probe, 22, 2, 3, 2, 3, 0.4, 0.6, left, 1, 0.3, 0.4, 0.6, 0.7, 0.5362489999970421, 0, , , 13.000000, 49.000000, 2.000000,3.000000,1.000000,6.000000,0.500000,1.000000
5, test, 3, probe, 23, 2, 1, 1, 2, 0.4, 0.3, right, 2, 0.3, 0.4, 0.6, 0.7, 0.42359969997778535, 0, 78.4757080078125, 2.04996089998167, 13.000000, 49.000000, 3.000000,3.000000,1.000000,6.000000,0.500000,1.000000
5, test, 3, no_probe, 24, 3, 2, 3, 2, 0.6, 0.4, left, 1, 0.3, 0.4, 0.6, 0.7, 0.5892169000580907, 1, , , 14.000000, 50.000000, 1.000000,3.000000,1.000000,6.000000,0.500000,1.000000
5, test, 3, no_probe, 25, 3, 1, 1, 3, 0.6, 0.3, right, 2, 0.3, 0.4, 0.6, 0.7, 0.5706367999082431, 1, , , 15.000000, 51.000000, 2.000000,3.000000,1.000000,6.000000,0.500000,1.000000
5, test, 4, no_probe, 1, 1, 4, 1, 4, 0.3, 0.7, left, 1, 0.3, 0.4, 0.6, 0.7, 0.316521400003694, 0, , , 0.000000, 51.000000, 1.000000,2.000000,1.000000,6.000000,0.500000,1.000000
5, test, 4, probe, 2, 2, 3, 3, 2, 0.4, 0.6, right, 2, 0.3, 0.4, 0.6, 0.7, 0.3691454000072554, 0, 67.11212158203125, 2.983340899925679, 0.000000, 51.000000, 2.000000,2.000000,1.000000,6.000000,0.500000,1.000000
5, test, 4, no_probe, 3, 3, 1, 3, 1, 0.6, 0.3, left, 1, 0.3, 0.4, 0.6, 0.7, 0.38375540007837117, 0, , , 0.000000, 51.000000, 1.000000,3.000000,1.000000,6.000000,0.500000,1.000000
5, test, 4, no_probe, 4, 1, 2, 2, 1, 0.3, 0.4, right, 2, 0.3, 0.4, 0.6, 0.7, 0.2972569999983534, 1, , , 1.000000, 52.000000, 2.000000,3.000000,1.000000,6.000000,0.500000,1.000000
5, test, 4, probe, 5, 3, 2, 3, 2, 0.6, 0.4, left, 1, 0.3, 0.4, 0.6, 0.7, 0.9230680000036955, 1, 78.125, 2.7833025000290945, 2.000000, 53.000000, 3.000000,3.000000,1.000000,6.000000,0.500000,1.000000
5, test, 4, no_probe, 6, 4, 1, 1, 4, 0.7, 0.3, right, 2, 0.3, 0.4, 0.6, 0.7, 0.9281371999531984, 1, , , 3.000000, 54.000000, 1.000000,2.000000,1.000000,6.000000,0.500000,1.000000
5, test, 4, probe, 7, 4, 3, 3, 4, 0.7, 0.6, right, 2, 0.3, 0.4, 0.6, 0.7, 0.6835209000855684, 0, 30.098724365234375, 4.183299799915403, 3.000000, 54.000000, 2.000000,2.000000,1.000000,6.000000,0.500000,1.000000
5, test, 4, no_probe, 8, 4, 2, 2, 4, 0.7, 0.4, right, 2, 0.3, 0.4, 0.6, 0.7, 0.0015951000386849046, 0, , , 3.000000, 54.000000, 1.000000,3.000000,1.000000,6.000000,0.500000,1.000000
5, test, 4, no_probe, 9, 2, 1, 2, 1, 0.4, 0.3, left, 1, 0.3, 0.4, 0.6, 0.7, 0.359220499987714, 0, , , 3.000000, 54.000000, 2.000000,3.000000,1.000000,6.000000,0.500000,1.000000
5, test, 4, probe, 10, 3, 2, 2, 3, 0.6, 0.4, right, 2, 0.3, 0.4, 0.6, 0.7, 0.33450879994779825, 1, 27.647918701171875, 2.449992499896325, 4.000000, 55.000000, 3.000000,3.000000,1.000000,6.000000,0.500000,1.000000
5, test, 4, no_probe, 11, 3, 1, 3, 1, 0.6, 0.3, left, 1, 0.3, 0.4, 0.6, 0.7, 0.40253319998737425, 1, , , 5.000000, 56.000000, 1.000000,3.000000,1.000000,6.000000,0.500000,1.000000
5, test, 4, no_probe, 12, 3, 2, 2, 3, 0.6, 0.4, right, 2, 0.3, 0.4, 0.6, 0.7, 0.3551061999751255, 1, , , 6.000000, 57.000000, 2.000000,3.000000,1.000000,6.000000,0.500000,1.000000
5, test, 4, probe, 13, 3, 4, 3, 4, 0.6, 0.7, left, 1, 0.3, 0.4, 0.6, 0.7, 0.4040427999570966, 0, 53.519500732421875, 4.383334100013599, 6.000000, 57.000000, 3.000000,3.000000,1.000000,6.000000,0.500000,1.000000
5, test, 4, no_probe, 14, 1, 4, 4, 1, 0.3, 0.7, right, 2, 0.3, 0.4, 0.6, 0.7, 0.2887045999523252, 0, , , 6.000000, 57.000000, 1.000000,3.000000,1.000000,6.000000,0.500000,1.000000
5, test, 4, no_probe, 15, 4, 3, 4, 3, 0.7, 0.6, left, 1, 0.3, 0.4, 0.6, 0.7, 0.3827072000131011, 0, , , 6.000000, 57.000000, 2.000000,3.000000,1.000000,6.000000,0.500000,1.000000
5, test, 4, probe, 16, 2, 1, 1, 2, 0.4, 0.3, right, 2, 0.3, 0.4, 0.6, 0.7, 0.6991893000667915, 0, 71.07595825195312, 2.466619500075467, 6.000000, 57.000000, 3.000000,3.000000,1.000000,6.000000,0.500000,1.000000
5, test, 4, no_probe, 17, 2, 3, 2, 3, 0.4, 0.6, left, 1, 0.3, 0.4, 0.6, 0.7, 0.5297947999788448, 1, , , 7.000000, 58.000000, 1.000000,2.000000,1.000000,6.000000,0.500000,1.000000
5, test, 4, probe, 18, 1, 4, 4, 1, 0.3, 0.7, right, 2, 0.3, 0.4, 0.6, 0.7, 0.48085940000601113, 1, 60.208892822265625, 2.333314400049858, 8.000000, 59.000000, 2.000000,2.000000,1.000000,6.000000,0.500000,1.000000
5, test, 4, no_probe, 19, 3, 2, 2, 3, 0.6, 0.4, right, 2, 0.3, 0.4, 0.6, 0.7, 0.44849330000579357, 1, , , 9.000000, 60.000000, 1.000000,2.000000,1.000000,6.000000,0.500000,1.000000
5, test, 4, probe, 20, 4, 2, 4, 2, 0.7, 0.4, left, 1, 0.3, 0.4, 0.6, 0.7, 0.47916270000860095, 0, 69.16558837890625, 2.1666353000327945, 9.000000, 60.000000, 2.000000,2.000000,1.000000,6.000000,0.500000,1.000000
5, test, 4, no_probe, 21, 3, 4, 4, 3, 0.6, 0.7, right, 2, 0.3, 0.4, 0.6, 0.7, 0.9109259999822825, 1, , , 10.000000, 61.000000, 1.000000,2.000000,1.000000,6.000000,0.500000,1.000000
5, test, 4, probe, 22, 4, 1, 1, 4, 0.7, 0.3, right, 2, 0.3, 0.4, 0.6, 0.7, 0.63524299999699, 1, 84.22543334960938, 3.566639899974689, 11.000000, 62.000000, 2.000000,2.000000,1.000000,6.000000,0.500000,1.000000
5, test, 4, no_probe, 23, 3, 4, 4, 3, 0.6, 0.7, right, 2, 0.3, 0.4, 0.6, 0.7, 0.3397674000589177, 1, , , 12.000000, 63.000000, 1.000000,2.000000,1.000000,6.000000,0.500000,1.000000
5, test, 4, probe, 24, 1, 3, 1, 3, 0.3, 0.6, left, 1, 0.3, 0.4, 0.6, 0.7, 0.2802265000063926, 1, 75.49835205078125, 2.1999564999714494, 13.000000, 64.000000, 2.000000,2.000000,1.000000,6.000000,0.500000,1.000000
5, test, 4, no_probe, 25, 2, 1, 1, 2, 0.4, 0.3, right, 2, 0.3, 0.4, 0.6, 0.7, 0.6331506000133231, 1, , , 14.000000, 65.000000, 1.000000,3.000000,1.000000,6.000000,0.500000,1.000000
5, test, 5, no_probe, 1, 2, 4, 2, 4, 0.4, 0.7, left, 1, 0.3, 0.4, 0.6, 0.7, 0.25723410001955926, 1, , , 1.000000, 66.000000, 1.000000,2.000000,1.000000,6.000000,0.500000,1.000000
5, test, 5, probe, 2, 4, 1, 1, 4, 0.7, 0.3, right, 2, 0.3, 0.4, 0.6, 0.7, 0.30917739996220917, 0, 83.59756469726562, 1.4999701000051573, 1.000000, 66.000000, 2.000000,2.000000,1.000000,6.000000,0.500000,1.000000
5, test, 5, no_probe, 3, 2, 3, 2, 3, 0.4, 0.6, left, 1, 0.3, 0.4, 0.6, 0.7, 0.41314459999557585, 0, , , 1.000000, 66.000000, 1.000000,2.000000,1.000000,6.000000,0.500000,1.000000
5, test, 5, probe, 4, 4, 1, 1, 4, 0.7, 0.3, right, 2, 0.3, 0.4, 0.6, 0.7, 0.27757509995717555, 1, 86.56973266601562, 1.7832924000686035, 2.000000, 67.000000, 2.000000,2.000000,1.000000,6.000000,0.500000,1.000000
5, test, 5, no_probe, 5, 2, 4, 2, 4, 0.4, 0.7, left, 1, 0.3, 0.4, 0.6, 0.7, 0.23696929996367544, 1, , , 3.000000, 68.000000, 1.000000,2.000000,1.000000,6.000000,0.500000,1.000000
5, test, 5, probe, 6, 3, 1, 1, 3, 0.6, 0.3, right, 2, 0.3, 0.4, 0.6, 0.7, 0.3486204999499023, 1, 74.21356201171875, 1.4999416000209749, 4.000000, 69.000000, 2.000000,2.000000,1.000000,6.000000,0.500000,1.000000
5, test, 5, no_probe, 7, 2, 1, 2, 1, 0.4, 0.3, left, 1, 0.3, 0.4, 0.6, 0.7, 0.5304738000268117, 1, , , 5.000000, 70.000000, 1.000000,2.000000,1.000000,6.000000,0.500000,1.000000
5, test, 5, probe, 8, 1, 2, 2, 1, 0.3, 0.4, right, 2, 0.3, 0.4, 0.6, 0.7, 0.3660510000772774, 1, 76.40609741210938, 2.099990699905902, 6.000000, 71.000000, 2.000000,2.000000,1.000000,6.000000,0.500000,1.000000
5, test, 5, no_probe, 9, 4, 2, 4, 2, 0.7, 0.4, left, 1, 0.3, 0.4, 0.6, 0.7, 0.38423330010846257, 1, , , 7.000000, 72.000000, 1.000000,2.000000,1.000000,6.000000,0.500000,1.000000
5, test, 5, probe, 10, 2, 3, 3, 2, 0.4, 0.6, right, 2, 0.3, 0.4, 0.6, 0.7, 0.38498400000389665, 0, 59.14227294921875, 2.9999891000334173, 7.000000, 72.000000, 2.000000,2.000000,1.000000,6.000000,0.500000,1.000000
5, test, 5, no_probe, 11, 1, 3, 1, 3, 0.3, 0.6, left, 1, 0.3, 0.4, 0.6, 0.7, 0.2983038000529632, 0, , , 7.000000, 72.000000, 1.000000,2.000000,1.000000,6.000000,0.500000,1.000000
5, test, 5, probe, 12, 2, 3, 3, 2, 0.4, 0.6, right, 2, 0.3, 0.4, 0.6, 0.7, 0.002590299933217466, 0, 37.822113037109375, 2.166630099993199, 7.000000, 72.000000, 2.000000,2.000000,1.000000,6.000000,0.500000,1.000000
5, test, 5, no_probe, 13, 3, 1, 3, 1, 0.6, 0.3, left, 1, 0.3, 0.4, 0.6, 0.7, 0.5122748999856412, 0, , , 7.000000, 72.000000, 1.000000,2.000000,1.000000,6.000000,0.500000,1.000000
5, test, 5, probe, 14, 2, 3, 3, 2, 0.4, 0.6, right, 2, 0.3, 0.4, 0.6, 0.7, 0.49686989991459996, 1, 66.90411376953125, 3.883317200001329, 8.000000, 73.000000, 2.000000,2.000000,1.000000,6.000000,0.500000,1.000000
5, test, 5, no_probe, 15, 1, 2, 1, 2, 0.3, 0.4, left, 1, 0.3, 0.4, 0.6, 0.7, 0.5267349000787362, 0, , , 8.000000, 73.000000, 1.000000,3.000000,1.000000,6.000000,0.500000,1.000000
5, test, 5, no_probe, 16, 4, 3, 3, 4, 0.7, 0.6, right, 2, 0.3, 0.4, 0.6, 0.7, 0.3828100999817252, 0, , , 8.000000, 73.000000, 2.000000,3.000000,1.000000,6.000000,0.500000,1.000000
5, test, 5, probe, 17, 1, 3, 1, 3, 0.3, 0.6, left, 1, 0.3, 0.4, 0.6, 0.7, 0.3262493999209255, 0, 37.011383056640625, 2.816617999924347, 8.000000, 73.000000, 3.000000,3.000000,1.000000,6.000000,0.500000,1.000000
5, test, 5, no_probe, 18, 4, 3, 4, 3, 0.7, 0.6, left, 1, 0.3, 0.4, 0.6, 0.7, 0.4086313999723643, 1, , , 9.000000, 74.000000, 1.000000,3.000000,1.000000,6.000000,0.500000,1.000000
5, test, 5, no_probe, 19, 3, 4, 3, 4, 0.6, 0.7, left, 1, 0.3, 0.4, 0.6, 0.7, 0.8850167000200599, 0, , , 9.000000, 74.000000, 2.000000,3.000000,1.000000,6.000000,0.500000,1.000000
5, test, 5, probe, 20, 2, 4, 4, 2, 0.4, 0.7, right, 2, 0.3, 0.4, 0.6, 0.7, 0.318483299924992, 0, 36.10076904296875, 3.133293600054458, 9.000000, 74.000000, 3.000000,3.000000,1.000000,6.000000,0.500000,1.000000
5, test, 5, no_probe, 21, 1, 4, 1, 4, 0.3, 0.7, left, 1, 0.3, 0.4, 0.6, 0.7, 0.5223655999870971, 1, , , 10.000000, 75.000000, 1.000000,3.000000,1.000000,6.000000,0.500000,1.000000
5, test, 5, no_probe, 22, 1, 3, 3, 1, 0.3, 0.6, right, 2, 0.3, 0.4, 0.6, 0.7, 0.36303979996591806, 0, , , 10.000000, 75.000000, 2.000000,3.000000,1.000000,6.000000,0.500000,1.000000
5, test, 5, probe, 23, 1, 2, 1, 2, 0.3, 0.4, left, 1, 0.3, 0.4, 0.6, 0.7, 0.9416760000167415, 0, 39.562103271484375, 2.2500206000404432, 10.000000, 75.000000, 3.000000,3.000000,1.000000,6.000000,0.500000,1.000000
5, test, 5, no_probe, 24, 2, 1, 1, 2, 0.4, 0.3, right, 2, 0.3, 0.4, 0.6, 0.7, 0.46532650000881404, 1, , , 11.000000, 76.000000, 1.000000,2.000000,1.000000,6.000000,0.500000,1.000000
5, test, 5, probe, 25, 4, 3, 4, 3, 0.7, 0.6, left, 1, 0.3, 0.4, 0.6, 0.7, 0.28757709998171777, 0, 65.13912963867188, 2.7832441999344155, 11.000000, 76.000000, 2.000000,2.000000,1.000000,6.000000,0.500000,1.000000
5, test, 6, no_probe, 1, 2, 4, 4, 2, 0.4, 0.7, right, 2, 0.3, 0.4, 0.6, 0.7, 0.6966384000843391, 0, , , 0.000000, 76.000000, 1.000000,2.000000,1.000000,6.000000,0.500000,1.000000
5, test, 6, probe, 2, 4, 3, 4, 3, 0.7, 0.6, left, 1, 0.3, 0.4, 0.6, 0.7, 1.4872495000017807, 1, 64.87686157226562, 3.16665019991342, 1.000000, 77.000000, 2.000000,2.000000,1.000000,6.000000,0.500000,1.000000
5, test, 6, no_probe, 3, 2, 3, 2, 3, 0.4, 0.6, left, 1, 0.3, 0.4, 0.6, 0.7, 0.5770356999710202, 0, , , 1.000000, 77.000000, 1.000000,3.000000,1.000000,6.000000,0.500000,1.000000
5, test, 6, no_probe, 4, 1, 2, 2, 1, 0.3, 0.4, right, 2, 0.3, 0.4, 0.6, 0.7, 0.454799999948591, 0, , , 1.000000, 77.000000, 2.000000,3.000000,1.000000,6.000000,0.500000,1.000000
5, test, 6, probe, 5, 3, 2, 3, 2, 0.6, 0.4, left, 1, 0.3, 0.4, 0.6, 0.7, 0.4947902000276372, 0, 29.502655029296875, 3.5333010000176728, 1.000000, 77.000000, 3.000000,3.000000,1.000000,6.000000,0.500000,1.000000
5, test, 6, no_probe, 6, 2, 4, 4, 2, 0.4, 0.7, right, 2, 0.3, 0.4, 0.6, 0.7, 0.877491099992767, 1, , , 2.000000, 78.000000, 1.000000,3.000000,1.000000,6.000000,0.500000,1.000000
5, test, 6, no_probe, 7, 1, 4, 1, 4, 0.3, 0.7, left, 1, 0.3, 0.4, 0.6, 0.7, 0.2808727999217808, 0, , , 2.000000, 78.000000, 2.000000,3.000000,1.000000,6.000000,0.500000,1.000000
5, test, 6, probe, 8, 3, 2, 2, 3, 0.6, 0.4, right, 2, 0.3, 0.4, 0.6, 0.7, 0.3898786000208929, 0, 70.47537231445312, 1.7666466999799013, 2.000000, 78.000000, 3.000000,3.000000,1.000000,6.000000,0.500000,1.000000
5, test, 6, no_probe, 9, 2, 1, 1, 2, 0.4, 0.3, right, 2, 0.3, 0.4, 0.6, 0.7, 0.42770790006034076, 1, , , 3.000000, 79.000000, 1.000000,2.000000,1.000000,6.000000,0.500000,1.000000
5, test, 6, probe, 10, 4, 3, 4, 3, 0.7, 0.6, left, 1, 0.3, 0.4, 0.6, 0.7, 0.4198920000344515, 1, 24.9324951171875, 4.983232900034636, 4.000000, 80.000000, 2.000000,2.000000,1.000000,6.000000,0.500000,1.000000
5, test, 6, no_probe, 11, 4, 2, 2, 4, 0.7, 0.4, right, 2, 0.3, 0.4, 0.6, 0.7, 0.39742080005817115, 0, , , 4.000000, 80.000000, 1.000000,2.000000,1.000000,6.000000,0.500000,1.000000
5, test, 6, probe, 12, 2, 1, 2, 1, 0.4, 0.3, left, 1, 0.3, 0.4, 0.6, 0.7, 0.5664908000035211, 0, 20.192138671875, 2.183263699989766, 4.000000, 80.000000, 2.000000,2.000000,1.000000,6.000000,0.500000,1.000000
5, test, 6, no_probe, 13, 2, 4, 4, 2, 0.4, 0.7, right, 2, 0.3, 0.4, 0.6, 0.7, 0.2796265999786556, 0, , , 4.000000, 80.000000, 1.000000,2.000000,1.000000,6.000000,0.500000,1.000000
5, test, 6, probe, 14, 1, 2, 1, 2, 0.3, 0.4, left, 1, 0.3, 0.4, 0.6, 0.7, 0.3067421999294311, 0, 66.9580078125, 1.9666645000688732, 4.000000, 80.000000, 2.000000,2.000000,1.000000,6.000000,0.500000,1.000000
5, test, 6, no_probe, 15, 3, 4, 3, 4, 0.6, 0.7, left, 1, 0.3, 0.4, 0.6, 0.7, 0.2869326000800356, 0, , , 4.000000, 80.000000, 1.000000,2.000000,1.000000,6.000000,0.500000,1.000000
5, test, 6, probe, 16, 4, 3, 3, 4, 0.7, 0.6, right, 2, 0.3, 0.4, 0.6, 0.7, 0.5424949999433011, 1, 69.54617309570312, 2.0499842000426725, 5.000000, 81.000000, 2.000000,2.000000,1.000000,6.000000,0.500000,1.000000
5, test, 6, no_probe, 17, 4, 3, 3, 4, 0.7, 0.6, right, 2, 0.3, 0.4, 0.6, 0.7, 0.742164499941282, 1, , , 6.000000, 82.000000, 1.000000,3.000000,1.000000,6.000000,0.500000,1.000000
5, test, 6, no_probe, 18, 4, 2, 2, 4, 0.7, 0.4, right, 2, 0.3, 0.4, 0.6, 0.7, 0.33748530002776533, 0, , , 6.000000, 82.000000, 2.000000,3.000000,1.000000,6.000000,0.500000,1.000000
5, test, 6, probe, 19, 4, 2, 2, 4, 0.7, 0.4, right, 2, 0.3, 0.4, 0.6, 0.7, 0.3913099999772385, 0, 80.04586791992188, 2.6332898000255227, 6.000000, 82.000000, 3.000000,3.000000,1.000000,6.000000,0.500000,1.000000
5, test, 6, no_probe, 20, 3, 1, 1, 3, 0.6, 0.3, right, 2, 0.3, 0.4, 0.6, 0.7, 0.9025640999898314, 0, , , 6.000000, 82.000000, 1.000000,3.000000,1.000000,6.000000,0.500000,1.000000
5, test, 6, no_probe, 21, 2, 4, 2, 4, 0.4, 0.7, left, 1, 0.3, 0.4, 0.6, 0.7, 0.44253649993333966, 1, , , 7.000000, 83.000000, 2.000000,3.000000,1.000000,6.000000,0.500000,1.000000
5, test, 6, probe, 22, 2, 4, 2, 4, 0.4, 0.7, left, 1, 0.3, 0.4, 0.6, 0.7, 0.3441744000883773, 0, 82.010498046875, 3.5832945000147447, 7.000000, 83.000000, 3.000000,3.000000,1.000000,6.000000,0.500000,1.000000
5, test, 6, no_probe, 23, 1, 2, 2, 1, 0.3, 0.4, right, 2, 0.3, 0.4, 0.6, 0.7, 1.1903066999511793, 1, , , 8.000000, 84.000000, 1.000000,2.000000,1.000000,6.000000,0.500000,1.000000
5, test, 6, probe, 24, 1, 2, 1, 2, 0.3, 0.4, left, 1, 0.3, 0.4, 0.6, 0.7, 0.48003330000210553, 1, 71.17996215820312, 1.6166891000466421, 9.000000, 85.000000, 2.000000,2.000000,1.000000,6.000000,0.500000,1.000000
5, test, 6, no_probe, 25, 3, 4, 3, 4, 0.6, 0.7, left, 1, 0.3, 0.4, 0.6, 0.7, 0.5805397999938577, 1, , , 10.000000, 86.000000, 1.000000,2.000000,1.000000,6.000000,0.500000,1.000000
5, test, 7, no_probe, 1, 1, 2, 2, 1, 0.3, 0.4, right, 2, 0.3, 0.4, 0.6, 0.7, 0.624573600012809, 0, , , 0.000000, 86.000000, 1.000000,2.000000,1.000000,6.000000,0.500000,1.000000
5, test, 7, probe, 2, 4, 2, 4, 2, 0.7, 0.4, left, 1, 0.3, 0.4, 0.6, 0.7, 0.4049814000027254, 0, 82.255859375, 2.0666267999913543, 0.000000, 86.000000, 2.000000,2.000000,1.000000,6.000000,0.500000,1.000000
5, test, 7, no_probe, 3, 2, 3, 3, 2, 0.4, 0.6, right, 2, 0.3, 0.4, 0.6, 0.7, 0.3346457000588998, 1, , , 1.000000, 87.000000, 1.000000,2.000000,1.000000,6.000000,0.500000,1.000000
5, test, 7, probe, 4, 4, 1, 4, 1, 0.7, 0.3, left, 1, 0.3, 0.4, 0.6, 0.7, 0.3063028999604285, 1, 74.15896606445312, 2.1333111999556422, 2.000000, 88.000000, 2.000000,2.000000,1.000000,6.000000,0.500000,1.000000
5, test, 7, no_probe, 5, 2, 1, 2, 1, 0.4, 0.3, left, 1, 0.3, 0.4, 0.6, 0.7, 0.4345837999135256, 0, , , 2.000000, 88.000000, 1.000000,2.000000,1.000000,6.000000,0.500000,1.000000
5, test, 7, probe, 6, 3, 1, 1, 3, 0.6, 0.3, right, 2, 0.3, 0.4, 0.6, 0.7, 0.31796940008644015, 0, 28.090545654296875, 1.5166116999462247, 2.000000, 88.000000, 2.000000,2.000000,1.000000,6.000000,0.500000,1.000000
5, test, 7, no_probe, 7, 1, 3, 1, 3, 0.3, 0.6, left, 1, 0.3, 0.4, 0.6, 0.7, 0.5614230999490246, 1, , , 3.000000, 89.000000, 1.000000,3.000000,1.000000,6.000000,0.500000,1.000000
5, test, 7, no_probe, 8, 4, 3, 3, 4, 0.7, 0.6, right, 2, 0.3, 0.4, 0.6, 0.7, 0.4601863999851048, 1, , , 4.000000, 90.000000, 2.000000,3.000000,1.000000,6.000000,0.500000,1.000000
5, test, 7, probe, 9, 4, 2, 2, 4, 0.7, 0.4, right, 2, 0.3, 0.4, 0.6, 0.7, 0.4542011000448838, 1, 95.02154541015625, 2.5332584000425413, 5.000000, 91.000000, 3.000000,3.000000,1.000000,6.000000,0.500000,1.000000
5, test, 7, no_probe, 10, 3, 2, 3, 2, 0.6, 0.4, left, 1, 0.3, 0.4, 0.6, 0.7, 0.6426580999977887, 1, , , 6.000000, 92.000000, 1.000000,2.000000,1.000000,6.000000,0.500000,1.000000
5, test, 7, probe, 11, 2, 1, 1, 2, 0.4, 0.3, right, 2, 0.3, 0.4, 0.6, 0.7, 0.5025083000073209, 0, 83.55545043945312, 3.5999392000958323, 6.000000, 92.000000, 2.000000,2.000000,1.000000,6.000000,0.500000,1.000000
5, test, 7, no_probe, 12, 1, 2, 1, 2, 0.3, 0.4, left, 1, 0.3, 0.4, 0.6, 0.7, 0.35557320003863424, 1, , , 7.000000, 93.000000, 1.000000,2.000000,1.000000,6.000000,0.500000,1.000000
5, test, 7, probe, 13, 4, 3, 3, 4, 0.7, 0.6, right, 2, 0.3, 0.4, 0.6, 0.7, 0.6350220999447629, 1, 85.17474365234375, 2.4999893000349402, 8.000000, 94.000000, 2.000000,2.000000,1.000000,6.000000,0.500000,1.000000
5, test, 7, no_probe, 14, 4, 2, 4, 2, 0.7, 0.4, left, 1, 0.3, 0.4, 0.6, 0.7, 0.2543340000556782, 0, , , 8.000000, 94.000000, 1.000000,2.000000,1.000000,6.000000,0.500000,1.000000
5, test, 7, probe, 15, 2, 1, 1, 2, 0.4, 0.3, right, 2, 0.3, 0.4, 0.6, 0.7, 0.34570720000192523, 1, 68.39010620117188, 1.9332504000049084, 9.000000, 95.000000, 2.000000,2.000000,1.000000,6.000000,0.500000,1.000000
5, test, 7, no_probe, 16, 1, 3, 1, 3, 0.3, 0.6, left, 1, 0.3, 0.4, 0.6, 0.7, 0.32196730002760887, 0, , , 9.000000, 95.000000, 1.000000,2.000000,1.000000,6.000000,0.500000,1.000000
5, test, 7, probe, 17, 4, 2, 2, 4, 0.7, 0.4, right, 2, 0.3, 0.4, 0.6, 0.7, 0.3302591999527067, 0, 29.7154541015625, 2.8666255999123678, 9.000000, 95.000000, 2.000000,2.000000,1.000000,6.000000,0.500000,1.000000
5, test, 7, no_probe, 18, 3, 2, 2, 3, 0.6, 0.4, right, 2, 0.3, 0.4, 0.6, 0.7, 0.7107096000108868, 1, , , 10.000000, 96.000000, 1.000000,2.000000,1.000000,6.000000,0.500000,1.000000
5, test, 7, probe, 19, 3, 1, 1, 3, 0.6, 0.3, right, 2, 0.3, 0.4, 0.6, 0.7, 0.38082640001084656, 1, 88.26226806640625, 1.8333432999206707, 11.000000, 97.000000, 2.000000,2.000000,1.000000,6.000000,0.500000,1.000000
5, test, 7, no_probe, 20, 2, 3, 2, 3, 0.4, 0.6, left, 1, 0.3, 0.4, 0.6, 0.7, 0.5199540000176057, 1, , , 12.000000, 98.000000, 1.000000,3.000000,1.000000,6.000000,0.500000,1.000000
5, test, 7, no_probe, 21, 3, 1, 3, 1, 0.6, 0.3, left, 1, 0.3, 0.4, 0.6, 0.7, 0.8161169999511912, 0, , , 12.000000, 98.000000, 2.000000,3.000000,1.000000,6.000000,0.500000,1.000000
5, test, 7, probe, 22, 3, 2, 2, 3, 0.6, 0.4, right, 2, 0.3, 0.4, 0.6, 0.7, 0.8038910999894142, 0, 85.09896850585938, 2.999964899965562, 12.000000, 98.000000, 3.000000,3.000000,1.000000,6.000000,0.500000,1.000000
5, test, 7, no_probe, 23, 1, 2, 1, 2, 0.3, 0.4, left, 1, 0.3, 0.4, 0.6, 0.7, 0.5531134000048041, 0, , , 12.000000, 98.000000, 1.000000,3.000000,1.000000,6.000000,0.500000,1.000000
5, test, 7, no_probe, 24, 2, 4, 2, 4, 0.4, 0.7, left, 1, 0.3, 0.4, 0.6, 0.7, 0.5353020000038669, 0, , , 12.000000, 98.000000, 2.000000,3.000000,1.000000,6.000000,0.500000,1.000000
5, test, 7, probe, 25, 1, 4, 4, 1, 0.3, 0.7, right, 2, 0.3, 0.4, 0.6, 0.7, 0.5967601999873295, 1, 69.29702758789062, 2.4499976999359205, 13.000000, 99.000000, 3.000000,3.000000,1.000000,6.000000,0.500000,1.000000
5, test, 8, no_probe, 1, 3, 1, 3, 1, 0.6, 0.3, left, 1, 0.3, 0.4, 0.6, 0.7, 0.3193199000088498, 1, , , 1.000000, 100.000000, 1.000000,2.000000,1.000000,6.000000,0.500000,1.000000
5, test, 8, probe, 2, 3, 2, 2, 3, 0.6, 0.4, right, 2, 0.3, 0.4, 0.6, 0.7, 0.41163570003118366, 1, 37.761505126953125, 4.316594899981283, 2.000000, 101.000000, 2.000000,2.000000,1.000000,6.000000,0.500000,1.000000
5, test, 8, no_probe, 3, 1, 3, 1, 3, 0.3, 0.6, left, 1, 0.3, 0.4, 0.6, 0.7, 0.5709808000829071, 0, , , 2.000000, 101.000000, 1.000000,3.000000,1.000000,6.000000,0.500000,1.000000
5, test, 8, no_probe, 4, 3, 4, 3, 4, 0.6, 0.7, left, 1, 0.3, 0.4, 0.6, 0.7, 0.6344444999704137, 0, , , 2.000000, 101.000000, 2.000000,3.000000,1.000000,6.000000,0.500000,1.000000
5, test, 8, probe, 5, 4, 3, 3, 4, 0.7, 0.6, right, 2, 0.3, 0.4, 0.6, 0.7, 0.3127765000099316, 0, 49.994415283203125, 3.0499822000274435, 2.000000, 101.000000, 3.000000,3.000000,1.000000,6.000000,0.500000,1.000000
5, test, 8, no_probe, 6, 2, 1, 2, 1, 0.4, 0.3, left, 1, 0.3, 0.4, 0.6, 0.7, 0.6062387999845669, 0, , , 2.000000, 101.000000, 1.000000,3.000000,1.000000,6.000000,0.500000,1.000000
5, test, 8, no_probe, 7, 1, 3, 3, 1, 0.3, 0.6, right, 2, 0.3, 0.4, 0.6, 0.7, 0.3208355000242591, 0, , , 2.000000, 101.000000, 2.000000,3.000000,1.000000,6.000000,0.500000,1.000000
5, test, 8, probe, 8, 3, 1, 3, 1, 0.6, 0.3, left, 1, 0.3, 0.4, 0.6, 0.7, 0.3179813000606373, 1, 69.8460693359375, 2.416583900107071, 3.000000, 102.000000, 3.000000,3.000000,1.000000,6.000000,0.500000,1.000000
5, test, 8, no_probe, 9, 1, 2, 1, 2, 0.3, 0.4, left, 1, 0.3, 0.4, 0.6, 0.7, 0.4192553999600932, 0, , , 3.000000, 102.000000, 1.000000,2.000000,1.000000,6.000000,0.500000,1.000000
5, test, 8, probe, 10, 3, 1, 1, 3, 0.6, 0.3, right, 2, 0.3, 0.4, 0.6, 0.7, 0.37193469994235784, 1, 35.81170654296875, 2.8666181000880897, 4.000000, 103.000000, 2.000000,2.000000,1.000000,6.000000,0.500000,1.000000
5, test, 8, no_probe, 11, 3, 4, 3, 4, 0.6, 0.7, left, 1, 0.3, 0.4, 0.6, 0.7, 0.591454999987036, 0, , , 4.000000, 103.000000, 1.000000,2.000000,1.000000,6.000000,0.500000,1.000000
5, test, 8, probe, 12, 4, 1, 4, 1, 0.7, 0.3, left, 1, 0.3, 0.4, 0.6, 0.7, 0.45788520004134625, 1, 74.1773681640625, 1.9333157000364736, 5.000000, 104.000000, 2.000000,2.000000,1.000000,6.000000,0.500000,1.000000
5, test, 8, no_probe, 13, 2, 1, 1, 2, 0.4, 0.3, right, 2, 0.3, 0.4, 0.6, 0.7, 0.6579993999330327, 0, , , 5.000000, 104.000000, 1.000000,2.000000,1.000000,6.000000,0.500000,1.000000
5, test, 8, probe, 14, 2, 3, 2, 3, 0.4, 0.6, left, 1, 0.3, 0.4, 0.6, 0.7, 0.680561300017871, 1, 75.29168701171875, 2.0999844999751076, 6.000000, 105.000000, 2.000000,2.000000,1.000000,6.000000,0.500000,1.000000
5, test, 8, no_probe, 15, 3, 4, 4, 3, 0.6, 0.7, right, 2, 0.3, 0.4, 0.6, 0.7, 0.001984999980777502, 1, , , 7.000000, 106.000000, 1.000000,2.000000,1.000000,6.000000,0.500000,1.000000
5, test, 8, probe, 16, 1, 2, 1, 2, 0.3, 0.4, left, 1, 0.3, 0.4, 0.6, 0.7, 0.776456099934876, 0, 54.745574951171875, 3.1666371000465006, 7.000000, 106.000000, 2.000000,2.000000,1.000000,6.000000,0.500000,1.000000
5, test, 8, no_probe, 17, 4, 2, 4, 2, 0.7, 0.4, left, 1, 0.3, 0.4, 0.6, 0.7, 0.46584349998738617, 1, , , 8.000000, 107.000000, 1.000000,2.000000,1.000000,6.000000,0.500000,1.000000
5, test, 8, probe, 18, 1, 3, 1, 3, 0.3, 0.6, left, 1, 0.3, 0.4, 0.6, 0.7, 0.7082713999552652, 1, 49.9970703125, 1.5999500000616536, 9.000000, 108.000000, 2.000000,2.000000,1.000000,6.000000,0.500000,1.000000
5, test, 8, no_probe, 19, 4, 1, 4, 1, 0.7, 0.3, left, 1, 0.3, 0.4, 0.6, 0.7, 0.5289283999009058, 1, , , 10.000000, 109.000000, 1.000000,2.000000,1.000000,6.000000,0.500000,1.000000
5, test, 8, probe, 20, 1, 3, 3, 1, 0.3, 0.6, right, 2, 0.3, 0.4, 0.6, 0.7, 0.9283402999863029, 0, 33.60308837890625, 4.516643200069666, 10.000000, 109.000000, 2.000000,2.000000,1.000000,6.000000,0.500000,1.000000
5, test, 8, no_probe, 21, 4, 2, 4, 2, 0.7, 0.4, left, 1, 0.3, 0.4, 0.6, 0.7, 0.5345540000125766, 1, , , 11.000000, 110.000000, 1.000000,2.000000,1.000000,6.000000,0.500000,1.000000
5, test, 8, probe, 22, 2, 1, 2, 1, 0.4, 0.3, left, 1, 0.3, 0.4, 0.6, 0.7, 0.5036842999979854, 0, 72.3560791015625, 9.316544800065458, 11.000000, 110.000000, 2.000000,2.000000,1.000000,6.000000,0.500000,1.000000
5, test, 8, no_probe, 23, 1, 2, 1, 2, 0.3, 0.4, left, 1, 0.3, 0.4, 0.6, 0.7, 1.7275700999889523, 0, , , 11.000000, 110.000000, 1.000000,2.000000,1.000000,6.000000,0.500000,1.000000
5, test, 8, probe, 24, 1, 4, 4, 1, 0.3, 0.7, right, 2, 0.3, 0.4, 0.6, 0.7, 1.4745640000328422, 0, 8.5972900390625, 2.7666257000528276, 11.000000, 110.000000, 2.000000,2.000000,1.000000,6.000000,0.500000,1.000000
5, test, 8, no_probe, 25, 4, 1, 4, 1, 0.7, 0.3, left, 1, 0.3, 0.4, 0.6, 0.7, 0.5779437999008223, 0, , , 11.000000, 110.000000, 1.000000,3.000000,1.000000,6.000000,0.500000,1.000000
