subject, block_type, block, thought probe, trial, chosen, unchosen, offer_left_image, offer_right_image, exp_value_chosen, exp_value_unchosen, choice_location, choice_key, exp_value1, exp_value2, exp_value3, exp_value4, RT, reward, vas, RT_vas, coins_per_block, coins_per_task, count_to_prob, ntrial_to_prob, ITI_duration,RT_deadline,choice_feedback_duration,outcome_duration
23, test, 1, abort_trial, 1
23, test, 1, no_probe, 2, 3, 1, 3, 1, 0.6, 0.3, left, 1, 0.3, 0.4, 0.6, 0.7, 1.2004710000182968, 0, , , 0.000000, 0.000000, 1.000000,2.000000,1.000000,6.000000,0.500000,1.000000
23, test, 1, probe, 3, 1, 3, 3, 1, 0.3, 0.6, right, 2, 0.3, 0.4, 0.6, 0.7, 1.773018999985652, 0, 77.58001708984375, 6.183219800004736, 0.000000, 0.000000, 2.000000,2.000000,1.000000,6.000000,0.500000,1.000000
23, test, 1, no_probe, 4, 4, 2, 4, 2, 0.7, 0.4, left, 1, 0.3, 0.4, 0.6, 0.7, 0.46643100000801496, 1, , , 1.000000, 1.000000, 1.000000,2.000000,1.000000,6.000000,0.500000,1.000000
23, test, 1, probe, 5, 3, 4, 3, 4, 0.6, 0.7, left, 1, 0.3, 0.4, 0.6, 0.7, 1.9760315000021365, 0, 75.7052001953125, 3.999945599993225, 1.000000, 1.000000, 2.000000,2.000000,1.000000,6.000000,0.500000,1.000000
23, test, 1, no_probe, 6, 4, 3, 3, 4, 0.7, 0.6, right, 2, 0.3, 0.4, 0.6, 0.7, 0.8534739000024274, 1, , , 2.000000, 2.000000, 1.000000,3.000000,1.000000,6.000000,0.500000,1.000000
23, test, 1, no_probe, 1, 4, 3, 4, 3, 0.7, 0.6, left, 1, 0.3, 0.4, 0.6, 0.7, 0.8712020000093617, 1, , , 1.000000, 3.000000, 1.000000,3.000000,1.000000,6.000000,0.500000,1.000000
23, test, 1, no_probe, 2, 3, 4, 3, 4, 0.6, 0.7, left, 1, 0.3, 0.4, 0.6, 0.7, 0.42304419999709353, 1, , , 2.000000, 4.000000, 2.000000,3.000000,1.000000,6.000000,0.500000,1.000000
23, test, 1, probe, 3, 3, 1, 1, 3, 0.6, 0.3, right, 2, 0.3, 0.4, 0.6, 0.7, 0.5872325999953318, 1, 81.11721801757812, 3.8828930000017863, 3.000000, 5.000000, 3.000000,3.000000,1.000000,6.000000,0.500000,1.000000
23, test, 1, no_probe, 4, 4, 2, 2, 4, 0.7, 0.4, right, 2, 0.3, 0.4, 0.6, 0.7, 0.6568789000157267, 1, , , 4.000000, 6.000000, 1.000000,2.000000,1.000000,6.000000,0.500000,1.000000
23, test, 1, probe, 5, 3, 1, 3, 1, 0.6, 0.3, left, 1, 0.3, 0.4, 0.6, 0.7, 0.41228309998405166, 1, 81.22979736328125, 4.0999478999874555, 5.000000, 7.000000, 2.000000,2.000000,1.000000,6.000000,0.500000,1.000000
23, test, 1, no_probe, 6, 4, 3, 4, 3, 0.7, 0.6, left, 1, 0.3, 0.4, 0.6, 0.7, 0.5981864999921527, 1, , , 6.000000, 8.000000, 1.000000,2.000000,1.000000,6.000000,0.500000,1.000000
23, test, 1, probe, 7, 1, 2, 2, 1, 0.3, 0.4, right, 2, 0.3, 0.4, 0.6, 0.7, 0.7923575000022538, 0, 78.79461669921875, 2.5166412999969907, 6.000000, 8.000000, 2.000000,2.000000,1.000000,6.000000,0.500000,1.000000
23, test, 1, no_probe, 8, 3, 1, 3, 1, 0.6, 0.3, left, 1, 0.3, 0.4, 0.6, 0.7, 1.0557760999945458, 1, , , 7.000000, 9.000000, 1.000000,2.000000,1.000000,6.000000,0.500000,1.000000
23, test, 1, probe, 9, 4, 2, 2, 4, 0.7, 0.4, right, 2, 0.3, 0.4, 0.6, 0.7, 0.667963999992935, 1, 74.72842407226562, 2.0165871999925002, 8.000000, 10.000000, 2.000000,2.000000,1.000000,6.000000,0.500000,1.000000
23, test, 1, no_probe, 10, 3, 2, 2, 3, 0.6, 0.4, right, 2, 0.3, 0.4, 0.6, 0.7, 0.5599405000102706, 1, , , 9.000000, 11.000000, 1.000000,2.000000,1.000000,6.000000,0.500000,1.000000
23, test, 1, probe, 11, 3, 2, 3, 2, 0.6, 0.4, left, 1, 0.3, 0.4, 0.6, 0.7, 0.5080444999912288, 1, 75.10891723632812, 2.6666226999950595, 10.000000, 12.000000, 2.000000,2.000000,1.000000,6.000000,0.500000,1.000000
23, test, 1, no_probe, 12, 4, 2, 2, 4, 0.7, 0.4, right, 2, 0.3, 0.4, 0.6, 0.7, 0.398310999997193, 1, , , 11.000000, 13.000000, 1.000000,3.000000,1.000000,6.000000,0.500000,1.000000
23, test, 1, no_probe, 13, 2, 1, 2, 1, 0.4, 0.3, left, 1, 0.3, 0.4, 0.6, 0.7, 0.5830068000068422, 1, , , 12.000000, 14.000000, 2.000000,3.000000,1.000000,6.000000,0.500000,1.000000
23, test, 1, probe, 14, 2, 4, 4, 2, 0.4, 0.7, right, 2, 0.3, 0.4, 0.6, 0.7, 0.7614833999832626, 0, 71.98153686523438, 2.633313199999975, 12.000000, 14.000000, 3.000000,3.000000,1.000000,6.000000,0.500000,1.000000
23, test, 1, no_probe, 15, 2, 1, 2, 1, 0.4, 0.3, left, 1, 0.3, 0.4, 0.6, 0.7, 0.7563495000067633, 1, , , 13.000000, 15.000000, 1.000000,2.000000,1.000000,6.000000,0.500000,1.000000
23, test, 1, probe, 16, 3, 1, 1, 3, 0.6, 0.3, right, 2, 0.3, 0.4, 0.6, 0.7, 0.6007055999943987, 1, 68.30709838867188, 2.049975899979472, 14.000000, 16.000000, 2.000000,2.000000,1.000000,6.000000,0.500000,1.000000
23, test, 1, no_probe, 17, 2, 1, 1, 2, 0.4, 0.3, right, 2, 0.3, 0.4, 0.6, 0.7, 0.5777436000062153, 0, , , 14.000000, 16.000000, 1.000000,2.000000,1.000000,6.000000,0.500000,1.000000
23, test, 1, probe, 18, 4, 1, 1, 4, 0.7, 0.3, right, 2, 0.3, 0.4, 0.6, 0.7, 0.6876126999850385, 0, 67.0887451171875, 3.4832773999951314, 14.000000, 16.000000, 2.000000,2.000000,1.000000,6.000000,0.500000,1.000000
23, test, 1, no_probe, 19, 2, 1, 2, 1, 0.4, 0.3, left, 1, 0.3, 0.4, 0.6, 0.7, 1.3174999000038952, 0, , , 14.000000, 16.000000, 1.000000,2.000000,1.000000,6.000000,0.500000,1.000000
23, test, 1, probe, 20, 4, 2, 4, 2, 0.7, 0.4, left, 1, 0.3, 0.4, 0.6, 0.7, 1.1217884999932721, 1, 68.29638671875, 2.4999540999997407, 15.000000, 17.000000, 2.000000,2.000000,1.000000,6.000000,0.500000,1.000000
23, test, 1, no_probe, 21, 1, 2, 1, 2, 0.3, 0.4, left, 1, 0.3, 0.4, 0.6, 0.7, 1.024992699996801, 1, , , 16.000000, 18.000000, 1.000000,2.000000,1.000000,6.000000,0.500000,1.000000
23, test, 1, probe, 22, 3, 2, 3, 2, 0.6, 0.4, left, 1, 0.3, 0.4, 0.6, 0.7, 0.9433433000231162, 1, 76.80731201171875, 2.4333255999954417, 17.000000, 19.000000, 2.000000,2.000000,1.000000,6.000000,0.500000,1.000000
23, test, 1, no_probe, 23, 1, 2, 1, 2, 0.3, 0.4, left, 1, 0.3, 0.4, 0.6, 0.7, 0.5602940999960992, 0, , , 17.000000, 19.000000, 1.000000,3.000000,1.000000,6.000000,0.500000,1.000000
23, test, 1, no_probe, 24, 3, 1, 3, 1, 0.6, 0.3, left, 1, 0.3, 0.4, 0.6, 0.7, 1.0675022999930661, 1, , , 18.000000, 20.000000, 2.000000,3.000000,1.000000,6.000000,0.500000,1.000000
23, test, 1, probe, 25, 3, 4, 3, 4, 0.6, 0.7, left, 1, 0.3, 0.4, 0.6, 0.7, 1.0500431999971624, 0, 74.04083251953125, 2.733338599995477, 18.000000, 20.000000, 3.000000,3.000000,1.000000,6.000000,0.500000,1.000000
23, test, 2, no_probe, 1, 2, 3, 2, 3, 0.4, 0.6, left, 1, 0.3, 0.4, 0.6, 0.7, 1.0395092999970075, 1, , , 1.000000, 21.000000, 1.000000,2.000000,1.000000,6.000000,0.500000,1.000000
23, test, 2, probe, 2, 2, 1, 2, 1, 0.4, 0.3, left, 1, 0.3, 0.4, 0.6, 0.7, 0.7077979999885429, 1, 76.50411987304688, 2.5832665000052657, 2.000000, 22.000000, 2.000000,2.000000,1.000000,6.000000,0.500000,1.000000
23, test, 2, no_probe, 3, 4, 3, 4, 3, 0.7, 0.6, left, 1, 0.3, 0.4, 0.6, 0.7, 1.3685533000098076, 1, , , 3.000000, 23.000000, 1.000000,2.000000,1.000000,6.000000,0.500000,1.000000
23, test, 2, probe, 4, 2, 1, 2, 1, 0.4, 0.3, left, 1, 0.3, 0.4, 0.6, 0.7, 0.6271208999969531, 1, 76.29666137695312, 2.5832558999827597, 4.000000, 24.000000, 2.000000,2.000000,1.000000,6.000000,0.500000,1.000000
23, test, 2, no_probe, 5, 2, 1, 1, 2, 0.4, 0.3, right, 2, 0.3, 0.4, 0.6, 0.7, 0.623159199982183, 1, , , 5.000000, 25.000000, 1.000000,2.000000,1.000000,6.000000,0.500000,1.000000
23, test, 2, probe, 6, 2, 4, 2, 4, 0.4, 0.7, left, 1, 0.3, 0.4, 0.6, 0.7, 0.607273699977668, 1, 78.16754150390625, 1.5332999000092968, 6.000000, 26.000000, 2.000000,2.000000,1.000000,6.000000,0.500000,1.000000
23, test, 2, no_probe, 7, 1, 3, 1, 3, 0.3, 0.6, left, 1, 0.3, 0.4, 0.6, 0.7, 1.0374246000137646, 0, , , 6.000000, 26.000000, 1.000000,3.000000,1.000000,6.000000,0.500000,1.000000
23, test, 2, no_probe, 8, 3, 1, 1, 3, 0.6, 0.3, right, 2, 0.3, 0.4, 0.6, 0.7, 0.8310941999952774, 1, , , 7.000000, 27.000000, 2.000000,3.000000,1.000000,6.000000,0.500000,1.000000
23, test, 2, probe, 9, 2, 4, 4, 2, 0.4, 0.7, right, 2, 0.3, 0.4, 0.6, 0.7, 0.754591300006723, 1, 74.32379150390625, 1.633339199994225, 8.000000, 28.000000, 3.000000,3.000000,1.000000,6.000000,0.500000,1.000000
23, test, 2, no_probe, 10, 2, 4, 4, 2, 0.4, 0.7, right, 2, 0.3, 0.4, 0.6, 0.7, 0.7189542000123765, 1, , , 9.000000, 29.000000, 1.000000,2.000000,1.000000,6.000000,0.500000,1.000000
23, test, 2, probe, 11, 3, 1, 3, 1, 0.6, 0.3, left, 1, 0.3, 0.4, 0.6, 0.7, 1.2442748000030406, 1, 78.10107421875, 2.933296799979871, 10.000000, 30.000000, 2.000000,2.000000,1.000000,6.000000,0.500000,1.000000
23, test, 2, no_probe, 12, 4, 1, 4, 1, 0.7, 0.3, left, 1, 0.3, 0.4, 0.6, 0.7, 1.2317798000003677, 0, , , 10.000000, 30.000000, 1.000000,2.000000,1.000000,6.000000,0.500000,1.000000
23, test, 2, probe, 13, 3, 2, 3, 2, 0.6, 0.4, left, 1, 0.3, 0.4, 0.6, 0.7, 0.70801709999796, 1, 72.41339111328125, 2.533272200002102, 11.000000, 31.000000, 2.000000,2.000000,1.000000,6.000000,0.500000,1.000000
23, test, 2, no_probe, 14, 4, 1, 4, 1, 0.7, 0.3, left, 1, 0.3, 0.4, 0.6, 0.7, 1.3666714999999385, 1, , , 12.000000, 32.000000, 1.000000,3.000000,1.000000,6.000000,0.500000,1.000000
23, test, 2, no_probe, 15, 4, 3, 3, 4, 0.7, 0.6, right, 2, 0.3, 0.4, 0.6, 0.7, 1.0581691000261344, 1, , , 13.000000, 33.000000, 2.000000,3.000000,1.000000,6.000000,0.500000,1.000000
23, test, 2, probe, 16, 4, 1, 4, 1, 0.7, 0.3, left, 1, 0.3, 0.4, 0.6, 0.7, 0.6100965999939945, 0, 71.5281982421875, 3.283296000008704, 13.000000, 33.000000, 3.000000,3.000000,1.000000,6.000000,0.500000,1.000000
23, test, 2, no_probe, 17, 2, 3, 2, 3, 0.4, 0.6, left, 1, 0.3, 0.4, 0.6, 0.7, 0.6906240000098478, 0, , , 13.000000, 33.000000, 1.000000,2.000000,1.000000,6.000000,0.500000,1.000000
23, test, 2, probe, 18, 3, 2, 3, 2, 0.6, 0.4, left, 1, 0.3, 0.4, 0.6, 0.7, 1.087788000004366, 1, 73.2545166015625, 1.7832448999979533, 14.000000, 34.000000, 2.000000,2.000000,1.000000,6.000000,0.500000,1.000000
23, test, 2, no_probe, 19, 4, 3, 3, 4, 0.7, 0.6, right, 2, 0.3, 0.4, 0.6, 0.7, 0.8096097000234295, 1, , , 15.000000, 35.000000, 1.000000,3.000000,1.000000,6.000000,0.500000,1.000000
23, test, 2, no_probe, 20, 1, 2, 2, 1, 0.3, 0.4, right, 2, 0.3, 0.4, 0.6, 0.7, 0.9875332999799866, 0, , , 15.000000, 35.000000, 2.000000,3.000000,1.000000,6.000000,0.500000,1.000000
23, test, 2, probe, 21, 2, 1, 2, 1, 0.4, 0.3, left, 1, 0.3, 0.4, 0.6, 0.7, 0.9215922000003047, 0, 73.41909790039062, 2.249994100013282, 15.000000, 35.000000, 3.000000,3.000000,1.000000,6.000000,0.500000,1.000000
23, test, 2, no_probe, 22, 4, 2, 4, 2, 0.7, 0.4, left, 1, 0.3, 0.4, 0.6, 0.7, 1.0904769000189845, 1, , , 16.000000, 36.000000, 1.000000,2.000000,1.000000,6.000000,0.500000,1.000000
23, test, 2, probe, 23, 2, 3, 2, 3, 0.4, 0.6, left, 1, 0.3, 0.4, 0.6, 0.7, 0.9452431999961846, 0, 63.781036376953125, 3.883285000018077, 16.000000, 36.000000, 2.000000,2.000000,1.000000,6.000000,0.500000,1.000000
23, test, 2, no_probe, 24, 4, 1, 1, 4, 0.7, 0.3, right, 2, 0.3, 0.4, 0.6, 0.7, 0.838465200009523, 1, , , 17.000000, 37.000000, 1.000000,2.000000,1.000000,6.000000,0.500000,1.000000
23, test, 2, probe, 25, 4, 1, 1, 4, 0.7, 0.3, right, 2, 0.3, 0.4, 0.6, 0.7, 0.5317398999759462, 1, 77.73785400390625, 1.9499462000094354, 18.000000, 38.000000, 2.000000,2.000000,1.000000,6.000000,0.500000,1.000000
23, test, 3, no_probe, 1, 4, 3, 4, 3, 0.7, 0.6, left, 1, 0.3, 0.4, 0.6, 0.7, 0.8015875999990385, 0, , , 0.000000, 38.000000, 1.000000,3.000000,1.000000,6.000000,0.500000,1.000000
23, test, 3, no_probe, 2, 3, 1, 1, 3, 0.6, 0.3, right, 2, 0.3, 0.4, 0.6, 0.7, 0.5979494999919552, 0, , , 0.000000, 38.000000, 2.000000,3.000000,1.000000,6.000000,0.500000,1.000000
23, test, 3, probe, 3, 1, 3, 1, 3, 0.3, 0.6, left, 1, 0.3, 0.4, 0.6, 0.7, 1.203659199993126, 0, 65.74673461914062, 2.116251100000227, 0.000000, 38.000000, 3.000000,3.000000,1.000000,6.000000,0.500000,1.000000
23, test, 3, no_probe, 4, 2, 3, 3, 2, 0.4, 0.6, right, 2, 0.3, 0.4, 0.6, 0.7, 1.0708443000039551, 0, , , 0.000000, 38.000000, 1.000000,3.000000,1.000000,6.000000,0.500000,1.000000
23, test, 3, no_probe, 5, 1, 2, 2, 1, 0.3, 0.4, right, 2, 0.3, 0.4, 0.6, 0.7, 1.6491611000092234, 0, , , 0.000000, 38.000000, 2.000000,3.000000,1.000000,6.000000,0.500000,1.000000
23, test, 3, probe, 6, 4, 1, 4, 1, 0.7, 0.3, left, 1, 0.3, 0.4, 0.6, 0.7, 0.3789243000210263, 1, 63.1883544921875, 3.0999525999941397, 1.000000, 39.000000, 3.000000,3.000000,1.000000,6.000000,0.500000,1.000000
23, test, 3, no_probe, 7, 4, 2, 4, 2, 0.7, 0.4, left, 1, 0.3, 0.4, 0.6, 0.7, 0.5501143999863416, 0, , , 1.000000, 39.000000, 1.000000,3.000000,1.000000,6.000000,0.500000,1.000000
23, test, 3, no_probe, 8, 4, 2, 2, 4, 0.7, 0.4, right, 2, 0.3, 0.4, 0.6, 0.7, 0.422198499989463, 1, , , 2.000000, 40.000000, 2.000000,3.000000,1.000000,6.000000,0.500000,1.000000
23, test, 3, probe, 9, 1, 2, 2, 1, 0.3, 0.4, right, 2, 0.3, 0.4, 0.6, 0.7, 0.6021982999809552, 0, 56.962890625, 2.199959099991247, 2.000000, 40.000000, 3.000000,3.000000,1.000000,6.000000,0.500000,1.000000
23, test, 3, no_probe, 10, 4, 3, 3, 4, 0.7, 0.6, right, 2, 0.3, 0.4, 0.6, 0.7, 0.5296515000227373, 1, , , 3.000000, 41.000000, 1.000000,2.000000,1.000000,6.000000,0.500000,1.000000
23, test, 3, probe, 11, 4, 2, 2, 4, 0.7, 0.4, right, 2, 0.3, 0.4, 0.6, 0.7, 0.47778879999532364, 0, 64.71661376953125, 8.583167300006608, 3.000000, 41.000000, 2.000000,2.000000,1.000000,6.000000,0.500000,1.000000
23, test, 3, no_probe, 12, 1, 3, 3, 1, 0.3, 0.6, right, 2, 0.3, 0.4, 0.6, 0.7, 0.8647715000261087, 0, , , 3.000000, 41.000000, 1.000000,2.000000,1.000000,6.000000,0.500000,1.000000
23, test, 3, probe, 13, 2, 4, 2, 4, 0.4, 0.7, left, 1, 0.3, 0.4, 0.6, 0.7, 1.081645500002196, 0, 67.97576904296875, 2.349955499987118, 3.000000, 41.000000, 2.000000,2.000000,1.000000,6.000000,0.500000,1.000000
23, test, 3, no_probe, 14, 3, 4, 4, 3, 0.6, 0.7, right, 2, 0.3, 0.4, 0.6, 0.7, 0.6045120999915525, 0, , , 3.000000, 41.000000, 1.000000,3.000000,1.000000,6.000000,0.500000,1.000000
23, test, 3, no_probe, 15, 4, 2, 4, 2, 0.7, 0.4, left, 1, 0.3, 0.4, 0.6, 0.7, 0.4072372000082396, 1, , , 4.000000, 42.000000, 2.000000,3.000000,1.000000,6.000000,0.500000,1.000000
23, test, 3, probe, 16, 4, 1, 1, 4, 0.7, 0.3, right, 2, 0.3, 0.4, 0.6, 0.7, 0.5873000999854412, 0, 66.94668579101562, 4.666598699986935, 4.000000, 42.000000, 3.000000,3.000000,1.000000,6.000000,0.500000,1.000000
23, test, 3, no_probe, 17, 2, 4, 2, 4, 0.4, 0.7, left, 1, 0.3, 0.4, 0.6, 0.7, 2.3669165000028443, 1, , , 5.000000, 43.000000, 1.000000,2.000000,1.000000,6.000000,0.500000,1.000000
23, test, 3, probe, 18, 3, 4, 3, 4, 0.6, 0.7, left, 1, 0.3, 0.4, 0.6, 0.7, 2.19699130000663, 1, 68.46197509765625, 2.283314500004053, 6.000000, 44.000000, 2.000000,2.000000,1.000000,6.000000,0.500000,1.000000
23, test, 3, no_probe, 19, 2, 1, 2, 1, 0.4, 0.3, left, 1, 0.3, 0.4, 0.6, 0.7, 1.466294999991078, 0, , , 6.000000, 44.000000, 1.000000,2.000000,1.000000,6.000000,0.500000,1.000000
23, test, 3, probe, 20, 4, 2, 2, 4, 0.7, 0.4, right, 2, 0.3, 0.4, 0.6, 0.7, 1.1569659000087995, 1, 70.30657958984375, 3.9499044000112917, 7.000000, 45.000000, 2.000000,2.000000,1.000000,6.000000,0.500000,1.000000
23, test, 3, no_probe, 21, 2, 3, 3, 2, 0.4, 0.6, right, 2, 0.3, 0.4, 0.6, 0.7, 1.7123661000223365, 0, , , 7.000000, 45.000000, 1.000000,3.000000,1.000000,6.000000,0.500000,1.000000
23, test, 3, no_probe, 22, 3, 4, 3, 4, 0.6, 0.7, left, 1, 0.3, 0.4, 0.6, 0.7, 1.57800270000007, 0, , , 7.000000, 45.000000, 2.000000,3.000000,1.000000,6.000000,0.500000,1.000000
23, test, 3, probe, 23, 4, 1, 4, 1, 0.7, 0.3, left, 1, 0.3, 0.4, 0.6, 0.7, 1.083756199979689, 1, 66.93692016601562, 2.2166599000047427, 8.000000, 46.000000, 3.000000,3.000000,1.000000,6.000000,0.500000,1.000000
23, test, 3, no_probe, 24, 2, 4, 2, 4, 0.4, 0.7, left, 1, 0.3, 0.4, 0.6, 0.7, 1.2724126999964938, 0, , , 8.000000, 46.000000, 1.000000,2.000000,1.000000,6.000000,0.500000,1.000000
23, test, 3, probe, 25, 3, 1, 1, 3, 0.6, 0.3, right, 2, 0.3, 0.4, 0.6, 0.7, 0.754047399997944, 1, 63.73724365234375, 2.416582700010622, 9.000000, 47.000000, 2.000000,2.000000,1.000000,6.000000,0.500000,1.000000
23, test, 4, no_probe, 1, 2, 1, 1, 2, 0.4, 0.3, right, 2, 0.3, 0.4, 0.6, 0.7, 0.4131743999896571, 0, , , 0.000000, 47.000000, 1.000000,2.000000,1.000000,6.000000,0.500000,1.000000
23, test, 4, probe, 2, 2, 3, 2, 3, 0.4, 0.6, left, 1, 0.3, 0.4, 0.6, 0.7, 0.8656000000191852, 0, 62.235076904296875, 4.133293099992443, 0.000000, 47.000000, 2.000000,2.000000,1.000000,6.000000,0.500000,1.000000
23, test, 4, no_probe, 3, 3, 1, 3, 1, 0.6, 0.3, left, 1, 0.3, 0.4, 0.6, 0.7, 0.6833058999909554, 1, , , 1.000000, 48.000000, 1.000000,3.000000,1.000000,6.000000,0.500000,1.000000
23, test, 4, no_probe, 4, 4, 1, 1, 4, 0.7, 0.3, right, 2, 0.3, 0.4, 0.6, 0.7, 0.8281212000001688, 0, , , 1.000000, 48.000000, 2.000000,3.000000,1.000000,6.000000,0.500000,1.000000
23, test, 4, probe, 5, 3, 4, 4, 3, 0.6, 0.7, right, 2, 0.3, 0.4, 0.6, 0.7, 1.4897367999947164, 0, 60.869293212890625, 1.6166305000078864, 1.000000, 48.000000, 3.000000,3.000000,1.000000,6.000000,0.500000,1.000000
23, test, 4, no_probe, 6, 3, 4, 4, 3, 0.6, 0.7, right, 2, 0.3, 0.4, 0.6, 0.7, 0.5648514999775216, 1, , , 2.000000, 49.000000, 1.000000,3.000000,1.000000,6.000000,0.500000,1.000000
23, test, 4, no_probe, 7, 3, 2, 3, 2, 0.6, 0.4, left, 1, 0.3, 0.4, 0.6, 0.7, 0.588218599994434, 0, , , 2.000000, 49.000000, 2.000000,3.000000,1.000000,6.000000,0.500000,1.000000
23, test, 4, probe, 8, 2, 3, 3, 2, 0.4, 0.6, right, 2, 0.3, 0.4, 0.6, 0.7, 1.737747400009539, 1, 62.6795654296875, 4.116584600007627, 3.000000, 50.000000, 3.000000,3.000000,1.000000,6.000000,0.500000,1.000000
23, test, 4, no_probe, 9, 1, 4, 1, 4, 0.3, 0.7, left, 1, 0.3, 0.4, 0.6, 0.7, 1.043031000008341, 0, , , 3.000000, 50.000000, 1.000000,2.000000,1.000000,6.000000,0.500000,1.000000
23, test, 4, probe, 10, 1, 3, 3, 1, 0.3, 0.6, right, 2, 0.3, 0.4, 0.6, 0.7, 0.8043045999947935, 0, 61.3236083984375, 1.5665925999928731, 3.000000, 50.000000, 2.000000,2.000000,1.000000,6.000000,0.500000,1.000000
23, test, 4, no_probe, 11, 2, 4, 2, 4, 0.4, 0.7, left, 1, 0.3, 0.4, 0.6, 0.7, 0.48025800002506003, 0, , , 3.000000, 50.000000, 1.000000,3.000000,1.000000,6.000000,0.500000,1.000000
23, test, 4, no_probe, 12, 3, 4, 4, 3, 0.6, 0.7, right, 2, 0.3, 0.4, 0.6, 0.7, 0.9386231999960728, 0, , , 3.000000, 50.000000, 2.000000,3.000000,1.000000,6.000000,0.500000,1.000000
23, test, 4, probe, 13, 4, 1, 4, 1, 0.7, 0.3, left, 1, 0.3, 0.4, 0.6, 0.7, 0.5586940000066534, 1, 54.8861083984375, 8.183247600012692, 4.000000, 51.000000, 3.000000,3.000000,1.000000,6.000000,0.500000,1.000000
23, test, 4, no_probe, 14, 1, 4, 4, 1, 0.3, 0.7, right, 2, 0.3, 0.4, 0.6, 0.7, 1.2975628999993205, 1, , , 5.000000, 52.000000, 1.000000,2.000000,1.000000,6.000000,0.500000,1.000000
23, test, 4, probe, 15, 3, 4, 4, 3, 0.6, 0.7, right, 2, 0.3, 0.4, 0.6, 0.7, 0.6075918999849819, 1, 60.60906982421875, 2.933300100004999, 6.000000, 53.000000, 2.000000,2.000000,1.000000,6.000000,0.500000,1.000000
23, test, 4, no_probe, 16, 2, 4, 2, 4, 0.4, 0.7, left, 1, 0.3, 0.4, 0.6, 0.7, 0.9786298000253737, 0, , , 6.000000, 53.000000, 1.000000,2.000000,1.000000,6.000000,0.500000,1.000000
23, test, 4, probe, 17, 4, 2, 2, 4, 0.7, 0.4, right, 2, 0.3, 0.4, 0.6, 0.7, 0.7440484000253491, 0, 62.761260986328125, 5.266597199981334, 6.000000, 53.000000, 2.000000,2.000000,1.000000,6.000000,0.500000,1.000000
23, test, 4, no_probe, 18, 3, 2, 2, 3, 0.6, 0.4, right, 2, 0.3, 0.4, 0.6, 0.7, 0.8449827000149526, 1, , , 7.000000, 54.000000, 1.000000,3.000000,1.000000,6.000000,0.500000,1.000000
23, test, 4, no_probe, 19, 3, 2, 2, 3, 0.6, 0.4, right, 2, 0.3, 0.4, 0.6, 0.7, 0.748811299999943, 0, , , 7.000000, 54.000000, 2.000000,3.000000,1.000000,6.000000,0.500000,1.000000
23, test, 4, probe, 20, 3, 2, 3, 2, 0.6, 0.4, left, 1, 0.3, 0.4, 0.6, 0.7, 0.5027033000078518, 0, 61.338348388671875, 1.749957699998049, 7.000000, 54.000000, 3.000000,3.000000,1.000000,6.000000,0.500000,1.000000
23, test, 4, no_probe, 21, 1, 3, 3, 1, 0.3, 0.6, right, 2, 0.3, 0.4, 0.6, 0.7, 0.4894190999912098, 1, , , 8.000000, 55.000000, 1.000000,3.000000,1.000000,6.000000,0.500000,1.000000
23, test, 4, no_probe, 22, 4, 3, 3, 4, 0.7, 0.6, right, 2, 0.3, 0.4, 0.6, 0.7, 0.7633617999963462, 1, , , 9.000000, 56.000000, 2.000000,3.000000,1.000000,6.000000,0.500000,1.000000
23, test, 4, probe, 23, 4, 1, 1, 4, 0.7, 0.3, right, 2, 0.3, 0.4, 0.6, 0.7, 0.4215920999995433, 1, 59.499755859375, 2.499961199995596, 10.000000, 57.000000, 3.000000,3.000000,1.000000,6.000000,0.500000,1.000000
23, test, 4, no_probe, 24, 1, 3, 1, 3, 0.3, 0.6, left, 1, 0.3, 0.4, 0.6, 0.7, 1.0537051999999676, 1, , , 11.000000, 58.000000, 1.000000,2.000000,1.000000,6.000000,0.500000,1.000000
23, test, 4, probe, 25, 3, 2, 2, 3, 0.6, 0.4, right, 2, 0.3, 0.4, 0.6, 0.7, 1.045380399998976, 1, 60.634674072265625, 1.4833521000109613, 12.000000, 59.000000, 2.000000,2.000000,1.000000,6.000000,0.500000,1.000000
23, test, 5, no_probe, 1, 2, 3, 3, 2, 0.4, 0.6, right, 2, 0.3, 0.4, 0.6, 0.7, 0.8982462999993004, 1, , , 1.000000, 60.000000, 1.000000,2.000000,1.000000,6.000000,0.500000,1.000000
23, test, 5, probe, 2, 2, 3, 2, 3, 0.4, 0.6, left, 1, 0.3, 0.4, 0.6, 0.7, 0.8193171999882907, 0, 62.02081298828125, 4.716591000003973, 1.000000, 60.000000, 2.000000,2.000000,1.000000,6.000000,0.500000,1.000000
23, test, 5, no_probe, 3, 3, 2, 3, 2, 0.6, 0.4, left, 1, 0.3, 0.4, 0.6, 0.7, 1.3191900000092573, 1, , , 2.000000, 61.000000, 1.000000,2.000000,1.000000,6.000000,0.500000,1.000000
23, test, 5, probe, 4, 3, 2, 3, 2, 0.6, 0.4, left, 1, 0.3, 0.4, 0.6, 0.7, 1.4744485999981407, 1, 68.08779907226562, 2.2499991999939084, 3.000000, 62.000000, 2.000000,2.000000,1.000000,6.000000,0.500000,1.000000
23, test, 5, no_probe, 5, 3, 2, 2, 3, 0.6, 0.4, right, 2, 0.3, 0.4, 0.6, 0.7, 0.8830506000085734, 0, , , 3.000000, 62.000000, 1.000000,3.000000,1.000000,6.000000,0.500000,1.000000
23, test, 5, no_probe, 6, 2, 1, 2, 1, 0.4, 0.3, left, 1, 0.3, 0.4, 0.6, 0.7, 1.4014489999972284, 1, , , 4.000000, 63.000000, 2.000000,3.000000,1.000000,6.000000,0.500000,1.000000
23, test, 5, probe, 7, 2, 1, 1, 2, 0.4, 0.3, right, 2, 0.3, 0.4, 0.6, 0.7, 0.797489399992628, 0, 58.96807861328125, 2.2832565999997314, 4.000000, 63.000000, 3.000000,3.000000,1.000000,6.000000,0.500000,1.000000
23, test, 5, no_probe, 8, 1, 2, 2, 1, 0.3, 0.4, right, 2, 0.3, 0.4, 0.6, 0.7, 1.3703212999971583, 0, , , 4.000000, 63.000000, 1.000000,3.000000,1.000000,6.000000,0.500000,1.000000
23, test, 5, no_probe, 9, 4, 1, 4, 1, 0.7, 0.3, left, 1, 0.3, 0.4, 0.6, 0.7, 0.9212057999975514, 1, , , 5.000000, 64.000000, 2.000000,3.000000,1.000000,6.000000,0.500000,1.000000
23, test, 5, probe, 10, 1, 2, 1, 2, 0.3, 0.4, left, 1, 0.3, 0.4, 0.6, 0.7, 1.9668848000001162, 0, 59.05499267578125, 1.516665400005877, 5.000000, 64.000000, 3.000000,3.000000,1.000000,6.000000,0.500000,1.000000
23, test, 5, no_probe, 11, 1, 2, 2, 1, 0.3, 0.4, right, 2, 0.3, 0.4, 0.6, 0.7, 1.1821115000057034, 0, , , 5.000000, 64.000000, 1.000000,2.000000,1.000000,6.000000,0.500000,1.000000
23, test, 5, probe, 12, 2, 1, 2, 1, 0.4, 0.3, left, 1, 0.3, 0.4, 0.6, 0.7, 1.221147900010692, 0, 55.379974365234375, 1.7832695999823045, 5.000000, 64.000000, 2.000000,2.000000,1.000000,6.000000,0.500000,1.000000
23, test, 5, no_probe, 13, 3, 1, 3, 1, 0.6, 0.3, left, 1, 0.3, 0.4, 0.6, 0.7, 0.8121339000063017, 1, , , 6.000000, 65.000000, 1.000000,3.000000,1.000000,6.000000,0.500000,1.000000
23, test, 5, no_probe, 14, 2, 1, 2, 1, 0.4, 0.3, left, 1, 0.3, 0.4, 0.6, 0.7, 1.2184716000047047, 1, , , 7.000000, 66.000000, 2.000000,3.000000,1.000000,6.000000,0.500000,1.000000
23, test, 5, probe, 15, 3, 2, 3, 2, 0.6, 0.4, left, 1, 0.3, 0.4, 0.6, 0.7, 0.9858722999924794, 1, 57.7127685546875, 1.9499801000056323, 8.000000, 67.000000, 3.000000,3.000000,1.000000,6.000000,0.500000,1.000000
23, test, 5, no_probe, 16, 4, 1, 1, 4, 0.7, 0.3, right, 2, 0.3, 0.4, 0.6, 0.7, 1.5600850000046194, 0, , , 8.000000, 67.000000, 1.000000,3.000000,1.000000,6.000000,0.500000,1.000000
23, test, 5, no_probe, 17, 4, 1, 4, 1, 0.7, 0.3, left, 1, 0.3, 0.4, 0.6, 0.7, 0.5086601999937557, 0, , , 8.000000, 67.000000, 2.000000,3.000000,1.000000,6.000000,0.500000,1.000000
23, test, 5, probe, 18, 4, 2, 2, 4, 0.7, 0.4, right, 2, 0.3, 0.4, 0.6, 0.7, 0.5574829000106547, 0, 56.04559326171875, 1.5166113000013866, 8.000000, 67.000000, 3.000000,3.000000,1.000000,6.000000,0.500000,1.000000
23, test, 5, no_probe, 19, 1, 3, 1, 3, 0.3, 0.6, left, 1, 0.3, 0.4, 0.6, 0.7, 1.2951653000200167, 0, , , 8.000000, 67.000000, 1.000000,3.000000,1.000000,6.000000,0.500000,1.000000
23, test, 5, no_probe, 20, 2, 3, 2, 3, 0.4, 0.6, left, 1, 0.3, 0.4, 0.6, 0.7, 0.43755429997690953, 0, , , 8.000000, 67.000000, 2.000000,3.000000,1.000000,6.000000,0.500000,1.000000
23, test, 5, probe, 21, 4, 2, 4, 2, 0.7, 0.4, left, 1, 0.3, 0.4, 0.6, 0.7, 0.5812157999898773, 1, 50.522796630859375, 2.083324100007303, 9.000000, 68.000000, 3.000000,3.000000,1.000000,6.000000,0.500000,1.000000
23, test, 5, no_probe, 22, 1, 2, 1, 2, 0.3, 0.4, left, 1, 0.3, 0.4, 0.6, 0.7, 1.858637400000589, 1, , , 10.000000, 69.000000, 1.000000,3.000000,1.000000,6.000000,0.500000,1.000000
23, test, 5, no_probe, 23, 3, 4, 3, 4, 0.6, 0.7, left, 1, 0.3, 0.4, 0.6, 0.7, 0.9583086999773514, 0, , , 10.000000, 69.000000, 2.000000,3.000000,1.000000,6.000000,0.500000,1.000000
23, test, 5, probe, 24, 3, 2, 3, 2, 0.6, 0.4, left, 1, 0.3, 0.4, 0.6, 0.7, 0.6606734000088181, 1, 49.996856689453125, 1.7166320999967866, 11.000000, 70.000000, 3.000000,3.000000,1.000000,6.000000,0.500000,1.000000
23, test, 5, no_probe, 25, 4, 2, 4, 2, 0.7, 0.4, left, 1, 0.3, 0.4, 0.6, 0.7, 1.1229590000002645, 1, , , 12.000000, 71.000000, 1.000000,2.000000,1.000000,6.000000,0.500000,1.000000
23, test, 6, no_probe, 1, 4, 3, 4, 3, 0.7, 0.6, left, 1, 0.3, 0.4, 0.6, 0.7, 0.6656756000011228, 1, , , 1.000000, 72.000000, 1.000000,2.000000,1.000000,6.000000,0.500000,1.000000
23, test, 6, probe, 2, 2, 3, 3, 2, 0.4, 0.6, right, 2, 0.3, 0.4, 0.6, 0.7, 2.164110100013204, 1, 67.917236328125, 4.366627699986566, 2.000000, 73.000000, 2.000000,2.000000,1.000000,6.000000,0.500000,1.000000
23, test, 6, no_probe, 3, 1, 2, 2, 1, 0.3, 0.4, right, 2, 0.3, 0.4, 0.6, 0.7, 1.5310223000124097, 0, , , 2.000000, 73.000000, 1.000000,2.000000,1.000000,6.000000,0.500000,1.000000
23, test, 6, probe, 4, 2, 3, 2, 3, 0.4, 0.6, left, 1, 0.3, 0.4, 0.6, 0.7, 2.063357700011693, 1, 64.23419189453125, 2.100004200008698, 3.000000, 74.000000, 2.000000,2.000000,1.000000,6.000000,0.500000,1.000000
23, test, 6, no_probe, 5, 2, 4, 2, 4, 0.4, 0.7, left, 1, 0.3, 0.4, 0.6, 0.7, 1.656197100004647, 1, , , 4.000000, 75.000000, 1.000000,2.000000,1.000000,6.000000,0.500000,1.000000
23, test, 6, probe, 6, 2, 4, 2, 4, 0.4, 0.7, left, 1, 0.3, 0.4, 0.6, 0.7, 1.0004443999787327, 1, 70.09146118164062, 1.5166688000026625, 5.000000, 76.000000, 2.000000,2.000000,1.000000,6.000000,0.500000,1.000000
23, test, 6, no_probe, 7, 4, 1, 4, 1, 0.7, 0.3, left, 1, 0.3, 0.4, 0.6, 0.7, 1.607878399983747, 1, , , 6.000000, 77.000000, 1.000000,2.000000,1.000000,6.000000,0.500000,1.000000
23, test, 6, probe, 8, 4, 3, 4, 3, 0.7, 0.6, left, 1, 0.3, 0.4, 0.6, 0.7, 1.572417499992298, 1, 68.88275146484375, 1.8332782000070438, 7.000000, 78.000000, 2.000000,2.000000,1.000000,6.000000,0.500000,1.000000
23, test, 6, no_probe, 9, 2, 3, 2, 3, 0.4, 0.6, left, 1, 0.3, 0.4, 0.6, 0.7, 1.0847990000038408, 0, , , 7.000000, 78.000000, 1.000000,2.000000,1.000000,6.000000,0.500000,1.000000
23, test, 6, probe, 10, 1, 2, 1, 2, 0.3, 0.4, left, 1, 0.3, 0.4, 0.6, 0.7, 1.222075700003188, 1, 71.33389282226562, 1.7333115999936126, 8.000000, 79.000000, 2.000000,2.000000,1.000000,6.000000,0.500000,1.000000
23, test, 6, no_probe, 11, 3, 1, 3, 1, 0.6, 0.3, left, 1, 0.3, 0.4, 0.6, 0.7, 1.9521247000084259, 1, , , 9.000000, 80.000000, 1.000000,2.000000,1.000000,6.000000,0.500000,1.000000
23, test, 6, probe, 12, 2, 1, 1, 2, 0.4, 0.3, right, 2, 0.3, 0.4, 0.6, 0.7, 1.4531851999927312, 0, 65.37954711914062, 2.249975699989591, 9.000000, 80.000000, 2.000000,2.000000,1.000000,6.000000,0.500000,1.000000
23, test, 6, no_probe, 13, 1, 3, 1, 3, 0.3, 0.6, left, 1, 0.3, 0.4, 0.6, 0.7, 1.1729462999792304, 1, , , 10.000000, 81.000000, 1.000000,3.000000,1.000000,6.000000,0.500000,1.000000
23, test, 6, no_probe, 14, 3, 2, 3, 2, 0.6, 0.4, left, 1, 0.3, 0.4, 0.6, 0.7, 1.0789356000022963, 1, , , 11.000000, 82.000000, 2.000000,3.000000,1.000000,6.000000,0.500000,1.000000
23, test, 6, probe, 15, 4, 3, 4, 3, 0.7, 0.6, left, 1, 0.3, 0.4, 0.6, 0.7, 1.2411090999958105, 0, 64.12612915039062, 3.450012899993453, 11.000000, 82.000000, 3.000000,3.000000,1.000000,6.000000,0.500000,1.000000
23, test, 6, no_probe, 16, 1, 2, 1, 2, 0.3, 0.4, left, 1, 0.3, 0.4, 0.6, 0.7, 0.9941560000006575, 0, , , 11.000000, 82.000000, 1.000000,3.000000,1.000000,6.000000,0.500000,1.000000
23, test, 6, no_probe, 17, 2, 3, 2, 3, 0.4, 0.6, left, 1, 0.3, 0.4, 0.6, 0.7, 0.8882383999880403, 0, , , 11.000000, 82.000000, 2.000000,3.000000,1.000000,6.000000,0.500000,1.000000
23, test, 6, probe, 18, 3, 4, 4, 3, 0.6, 0.7, right, 2, 0.3, 0.4, 0.6, 0.7, 0.5574594000063371, 0, 59.121337890625, 1.2499477999808732, 11.000000, 82.000000, 3.000000,3.000000,1.000000,6.000000,0.500000,1.000000
23, test, 6, no_probe, 19, 3, 1, 3, 1, 0.6, 0.3, left, 1, 0.3, 0.4, 0.6, 0.7, 0.7861752999888267, 1, , , 12.000000, 83.000000, 1.000000,3.000000,1.000000,6.000000,0.500000,1.000000
23, test, 6, no_probe, 20, 3, 4, 3, 4, 0.6, 0.7, left, 1, 0.3, 0.4, 0.6, 0.7, 0.8046710999915376, 0, , , 12.000000, 83.000000, 2.000000,3.000000,1.000000,6.000000,0.500000,1.000000
23, test, 6, probe, 21, 1, 2, 1, 2, 0.3, 0.4, left, 1, 0.3, 0.4, 0.6, 0.7, 0.9686508000013418, 0, 59.103912353515625, 1.2666436999861617, 12.000000, 83.000000, 3.000000,3.000000,1.000000,6.000000,0.500000,1.000000
23, test, 6, no_probe, 22, 3, 2, 3, 2, 0.6, 0.4, left, 1, 0.3, 0.4, 0.6, 0.7, 0.884754900005646, 1, , , 13.000000, 84.000000, 1.000000,2.000000,1.000000,6.000000,0.500000,1.000000
23, test, 6, probe, 23, 3, 4, 4, 3, 0.6, 0.7, right, 2, 0.3, 0.4, 0.6, 0.7, 1.990019500022754, 0, 60.46209716796875, 2.4499947000003885, 13.000000, 84.000000, 2.000000,2.000000,1.000000,6.000000,0.500000,1.000000
23, test, 6, no_probe, 24, 1, 2, 1, 2, 0.3, 0.4, left, 1, 0.3, 0.4, 0.6, 0.7, 0.9524841999809723, 1, , , 14.000000, 85.000000, 1.000000,2.000000,1.000000,6.000000,0.500000,1.000000
23, test, 6, probe, 25, 1, 2, 2, 1, 0.3, 0.4, right, 2, 0.3, 0.4, 0.6, 0.7, 1.1997447999892756, 0, 57.118316650390625, 2.9166262000217102, 14.000000, 85.000000, 2.000000,2.000000,1.000000,6.000000,0.500000,1.000000
23, test, 7, no_probe, 1, 4, 2, 2, 4, 0.7, 0.4, right, 2, 0.3, 0.4, 0.6, 0.7, 0.5837670000037178, 1, , , 1.000000, 86.000000, 1.000000,2.000000,1.000000,6.000000,0.500000,1.000000
23, test, 7, probe, 2, 4, 2, 2, 4, 0.7, 0.4, right, 2, 0.3, 0.4, 0.6, 0.7, 0.7744093999790493, 1, 68.828369140625, 2.283294399996521, 2.000000, 87.000000, 2.000000,2.000000,1.000000,6.000000,0.500000,1.000000
23, test, 7, no_probe, 3, 4, 3, 4, 3, 0.7, 0.6, left, 1, 0.3, 0.4, 0.6, 0.7, 1.1073843000049237, 1, , , 3.000000, 88.000000, 1.000000,2.000000,1.000000,6.000000,0.500000,1.000000
23, test, 7, probe, 4, 4, 2, 4, 2, 0.7, 0.4, left, 1, 0.3, 0.4, 0.6, 0.7, 0.888024799991399, 0, 67.68771362304688, 2.94990219999454, 3.000000, 88.000000, 2.000000,2.000000,1.000000,6.000000,0.500000,1.000000
23, test, 7, no_probe, 5, 3, 4, 3, 4, 0.6, 0.7, left, 1, 0.3, 0.4, 0.6, 0.7, 1.19604770001024, 0, , , 3.000000, 88.000000, 1.000000,3.000000,1.000000,6.000000,0.500000,1.000000
23, test, 7, no_probe, 6, 4, 2, 4, 2, 0.7, 0.4, left, 1, 0.3, 0.4, 0.6, 0.7, 1.0485628000169527, 1, , , 4.000000, 89.000000, 2.000000,3.000000,1.000000,6.000000,0.500000,1.000000
23, test, 7, probe, 7, 2, 1, 2, 1, 0.4, 0.3, left, 1, 0.3, 0.4, 0.6, 0.7, 1.6166184000030626, 1, 64.25088500976562, 2.2166503999906126, 5.000000, 90.000000, 3.000000,3.000000,1.000000,6.000000,0.500000,1.000000
23, test, 7, no_probe, 8, 1, 4, 1, 4, 0.3, 0.7, left, 1, 0.3, 0.4, 0.6, 0.7, 0.863060100004077, 1, , , 6.000000, 91.000000, 1.000000,2.000000,1.000000,6.000000,0.500000,1.000000
23, test, 7, probe, 9, 4, 1, 4, 1, 0.7, 0.3, left, 1, 0.3, 0.4, 0.6, 0.7, 1.2269660000165459, 1, 67.55813598632812, 2.716594099998474, 7.000000, 92.000000, 2.000000,2.000000,1.000000,6.000000,0.500000,1.000000
23, test, 7, no_probe, 10, 1, 4, 1, 4, 0.3, 0.7, left, 1, 0.3, 0.4, 0.6, 0.7, 1.0121081999968737, 1, , , 8.000000, 93.000000, 1.000000,2.000000,1.000000,6.000000,0.500000,1.000000
23, test, 7, probe, 11, 3, 4, 3, 4, 0.6, 0.7, left, 1, 0.3, 0.4, 0.6, 0.7, 0.756752300017979, 1, 66.01171875, 1.5665933999989647, 9.000000, 94.000000, 2.000000,2.000000,1.000000,6.000000,0.500000,1.000000
23, test, 7, no_probe, 12, 1, 4, 4, 1, 0.3, 0.7, right, 2, 0.3, 0.4, 0.6, 0.7, 1.3440620999899693, 1, , , 10.000000, 95.000000, 1.000000,3.000000,1.000000,6.000000,0.500000,1.000000
23, test, 7, no_probe, 13, 4, 3, 4, 3, 0.7, 0.6, left, 1, 0.3, 0.4, 0.6, 0.7, 1.2373940999968909, 1, , , 11.000000, 96.000000, 2.000000,3.000000,1.000000,6.000000,0.500000,1.000000
23, test, 7, probe, 14, 3, 1, 3, 1, 0.6, 0.3, left, 1, 0.3, 0.4, 0.6, 0.7, 0.8884892000060063, 1, 75.08975219726562, 2.283279199997196, 12.000000, 97.000000, 3.000000,3.000000,1.000000,6.000000,0.500000,1.000000
23, test, 7, no_probe, 15, 3, 1, 3, 1, 0.6, 0.3, left, 1, 0.3, 0.4, 0.6, 0.7, 1.194338000001153, 1, , , 13.000000, 98.000000, 1.000000,2.000000,1.000000,6.000000,0.500000,1.000000
23, test, 7, probe, 16, 2, 4, 2, 4, 0.4, 0.7, left, 1, 0.3, 0.4, 0.6, 0.7, 1.0631389999762177, 0, 72.12484741210938, 2.199998299998697, 13.000000, 98.000000, 2.000000,2.000000,1.000000,6.000000,0.500000,1.000000
23, test, 7, no_probe, 17, 3, 2, 3, 2, 0.6, 0.4, left, 1, 0.3, 0.4, 0.6, 0.7, 0.9727591999981087, 0, , , 13.000000, 98.000000, 1.000000,2.000000,1.000000,6.000000,0.500000,1.000000
23, test, 7, probe, 18, 1, 3, 1, 3, 0.3, 0.6, left, 1, 0.3, 0.4, 0.6, 0.7, 1.2029267000034451, 1, 71.18951416015625, 1.6666079999995418, 14.000000, 99.000000, 2.000000,2.000000,1.000000,6.000000,0.500000,1.000000
23, test, 7, no_probe, 19, 4, 2, 4, 2, 0.7, 0.4, left, 1, 0.3, 0.4, 0.6, 0.7, 1.4217250000219792, 1, , , 15.000000, 100.000000, 1.000000,2.000000,1.000000,6.000000,0.500000,1.000000
23, test, 7, probe, 20, 2, 4, 2, 4, 0.4, 0.7, left, 1, 0.3, 0.4, 0.6, 0.7, 1.2788259999942966, 1, 70.23617553710938, 1.3499272000044584, 16.000000, 101.000000, 2.000000,2.000000,1.000000,6.000000,0.500000,1.000000
23, test, 7, no_probe, 21, 4, 3, 4, 3, 0.7, 0.6, left, 1, 0.3, 0.4, 0.6, 0.7, 1.0408701999986079, 1, , , 17.000000, 102.000000, 1.000000,2.000000,1.000000,6.000000,0.500000,1.000000
23, test, 7, probe, 22, 4, 3, 4, 3, 0.7, 0.6, left, 1, 0.3, 0.4, 0.6, 0.7, 0.9685964999953285, 1, 71.57974243164062, 1.2999495000112802, 18.000000, 103.000000, 2.000000,2.000000,1.000000,6.000000,0.500000,1.000000
23, test, 7, no_probe, 23, 3, 1, 3, 1, 0.6, 0.3, left, 1, 0.3, 0.4, 0.6, 0.7, 0.917773599998327, 1, , , 19.000000, 104.000000, 1.000000,2.000000,1.000000,6.000000,0.500000,1.000000
23, test, 7, probe, 24, 3, 1, 3, 1, 0.6, 0.3, left, 1, 0.3, 0.4, 0.6, 0.7, 0.6546510000189301, 1, 70.81085205078125, 2.833272099989699, 20.000000, 105.000000, 2.000000,2.000000,1.000000,6.000000,0.500000,1.000000
23, test, 7, no_probe, 25, 2, 4, 2, 4, 0.4, 0.7, left, 1, 0.3, 0.4, 0.6, 0.7, 1.0791514000156894, 0, , , 20.000000, 105.000000, 1.000000,2.000000,1.000000,6.000000,0.500000,1.000000
23, test, 8, no_probe, 1, 4, 2, 4, 2, 0.7, 0.4, left, 1, 0.3, 0.4, 0.6, 0.7, 0.767713500012178, 1, , , 1.000000, 106.000000, 1.000000,3.000000,1.000000,6.000000,0.500000,1.000000
23, test, 8, no_probe, 2, 3, 4, 3, 4, 0.6, 0.7, left, 1, 0.3, 0.4, 0.6, 0.7, 0.9541944999946281, 1, , , 2.000000, 107.000000, 2.000000,3.000000,1.000000,6.000000,0.500000,1.000000
23, test, 8, probe, 3, 1, 3, 1, 3, 0.3, 0.6, left, 1, 0.3, 0.4, 0.6, 0.7, 0.9301273000019137, 1, 77.04232788085938, 3.1829216000041924, 3.000000, 108.000000, 3.000000,3.000000,1.000000,6.000000,0.500000,1.000000
23, test, 8, no_probe, 4, 3, 4, 3, 4, 0.6, 0.7, left, 1, 0.3, 0.4, 0.6, 0.7, 0.8741338000108954, 1, , , 4.000000, 109.000000, 1.000000,3.000000,1.000000,6.000000,0.500000,1.000000
23, test, 8, no_probe, 5, 1, 2, 1, 2, 0.3, 0.4, left, 1, 0.3, 0.4, 0.6, 0.7, 0.5532168000063393, 0, , , 4.000000, 109.000000, 2.000000,3.000000,1.000000,6.000000,0.500000,1.000000
23, test, 8, probe, 6, 1, 3, 1, 3, 0.3, 0.6, left, 1, 0.3, 0.4, 0.6, 0.7, 1.887223699974129, 1, 65.67037963867188, 2.2165907000016887, 5.000000, 110.000000, 3.000000,3.000000,1.000000,6.000000,0.500000,1.000000
23, test, 8, no_probe, 7, 4, 3, 4, 3, 0.7, 0.6, left, 1, 0.3, 0.4, 0.6, 0.7, 0.6949842000030912, 1, , , 6.000000, 111.000000, 1.000000,3.000000,1.000000,6.000000,0.500000,1.000000
23, test, 8, no_probe, 8, 1, 2, 1, 2, 0.3, 0.4, left, 1, 0.3, 0.4, 0.6, 0.7, 0.8938519000075758, 0, , , 6.000000, 111.000000, 2.000000,3.000000,1.000000,6.000000,0.500000,1.000000
23, test, 8, probe, 9, 1, 2, 2, 1, 0.3, 0.4, right, 2, 0.3, 0.4, 0.6, 0.7, 0.4996515999955591, 0, 63.073455810546875, 3.3666257000004407, 6.000000, 111.000000, 3.000000,3.000000,1.000000,6.000000,0.500000,1.000000
23, test, 8, no_probe, 10, 4, 3, 4, 3, 0.7, 0.6, left, 1, 0.3, 0.4, 0.6, 0.7, 0.3881144999759272, 1, , , 7.000000, 112.000000, 1.000000,3.000000,1.000000,6.000000,0.500000,1.000000
23, test, 8, no_probe, 11, 3, 4, 3, 4, 0.6, 0.7, left, 1, 0.3, 0.4, 0.6, 0.7, 1.0431750999996439, 1, , , 8.000000, 113.000000, 2.000000,3.000000,1.000000,6.000000,0.500000,1.000000
23, test, 8, probe, 12, 3, 1, 3, 1, 0.6, 0.3, left, 1, 0.3, 0.4, 0.6, 0.7, 0.6631727000058163, 1, 62.01531982421875, 1.433288399974117, 9.000000, 114.000000, 3.000000,3.000000,1.000000,6.000000,0.500000,1.000000
23, test, 8, no_probe, 13, 1, 4, 1, 4, 0.3, 0.7, left, 1, 0.3, 0.4, 0.6, 0.7, 0.3661052000243217, 0, , , 9.000000, 114.000000, 1.000000,2.000000,1.000000,6.000000,0.500000,1.000000
23, test, 8, probe, 14, 2, 1, 2, 1, 0.4, 0.3, left, 1, 0.3, 0.4, 0.6, 0.7, 0.672717699984787, 0, 59.956939697265625, 1.216658399993321, 9.000000, 114.000000, 2.000000,2.000000,1.000000,6.000000,0.500000,1.000000
23, test, 8, no_probe, 15, 1, 4, 1, 4, 0.3, 0.7, left, 1, 0.3, 0.4, 0.6, 0.7, 0.5187088999955449, 0, , , 9.000000, 114.000000, 1.000000,2.000000,1.000000,6.000000,0.500000,1.000000
23, test, 8, probe, 16, 4, 3, 4, 3, 0.7, 0.6, left, 1, 0.3, 0.4, 0.6, 0.7, 0.42678119998890907, 1, 54.2913818359375, 1.683279399992898, 10.000000, 115.000000, 2.000000,2.000000,1.000000,6.000000,0.500000,1.000000
23, test, 8, no_probe, 17, 4, 1, 1, 4, 0.7, 0.3, right, 2, 0.3, 0.4, 0.6, 0.7, 1.0501918999943882, 1, , , 11.000000, 116.000000, 1.000000,3.000000,1.000000,6.000000,0.500000,1.000000
23, test, 8, no_probe, 18, 4, 1, 1, 4, 0.7, 0.3, right, 2, 0.3, 0.4, 0.6, 0.7, 0.4059138000011444, 1, , , 12.000000, 117.000000, 2.000000,3.000000,1.000000,6.000000,0.500000,1.000000
23, test, 8, probe, 19, 4, 2, 4, 2, 0.7, 0.4, left, 1, 0.3, 0.4, 0.6, 0.7, 0.7227121999894734, 1, 49.844146728515625, 2.016670899989549, 13.000000, 118.000000, 3.000000,3.000000,1.000000,6.000000,0.500000,1.000000
23, test, 8, no_probe, 20, 4, 1, 4, 1, 0.7, 0.3, left, 1, 0.3, 0.4, 0.6, 0.7, 1.022025999991456, 1, , , 14.000000, 119.000000, 1.000000,3.000000,1.000000,6.000000,0.500000,1.000000
23, test, 8, no_probe, 21, 4, 2, 4, 2, 0.7, 0.4, left, 1, 0.3, 0.4, 0.6, 0.7, 0.8429319999995641, 1, , , 15.000000, 120.000000, 2.000000,3.000000,1.000000,6.000000,0.500000,1.000000
23, test, 8, probe, 22, 4, 1, 1, 4, 0.7, 0.3, right, 2, 0.3, 0.4, 0.6, 0.7, 0.8920170000055805, 1, 53.780029296875, 1.833301799983019, 16.000000, 121.000000, 3.000000,3.000000,1.000000,6.000000,0.500000,1.000000
23, test, 8, no_probe, 23, 3, 1, 3, 1, 0.6, 0.3, left, 1, 0.3, 0.4, 0.6, 0.7, 0.7900655000121333, 0, , , 16.000000, 121.000000, 1.000000,3.000000,1.000000,6.000000,0.500000,1.000000
23, test, 8, no_probe, 24, 4, 3, 3, 4, 0.7, 0.6, right, 2, 0.3, 0.4, 0.6, 0.7, 1.7247160999977496, 0, , , 16.000000, 121.000000, 2.000000,3.000000,1.000000,6.000000,0.500000,1.000000
23, test, 8, probe, 25, 2, 1, 2, 1, 0.4, 0.3, left, 1, 0.3, 0.4, 0.6, 0.7, 0.5975531000003684, 1, 54.256591796875, 5.716551299992716, 17.000000, 122.000000, 3.000000,3.000000,1.000000,6.000000,0.500000,1.000000
