subject, block_type, block, thought probe, trial, chosen, unchosen, offer_left_image, offer_right_image, exp_value_chosen, exp_value_unchosen, choice_location, choice_key, exp_value1, exp_value2, exp_value3, exp_value4, RT, reward, vas, RT_vas, coins_per_block, coins_per_task, count_to_prob, ntrial_to_prob, ITI_duration,RT_deadline,choice_feedback_duration,outcome_duration
40, test, 1, no_probe, 1, 4, 1, 4, 1, 0.7, 0.3, left, 1, 0.3, 0.4, 0.6, 0.7, 1.0975955999456346, 1, , , 1.000000, 1.000000, 1.000000,2.000000,1.000000,6.000000,0.500000,1.000000
40, test, 1, probe, 2, 1, 2, 2, 1, 0.3, 0.4, right, 2, 0.3, 0.4, 0.6, 0.7, 1.4838953998405486, 0, 99.99472045898438, 8.449839900014922, 1.000000, 1.000000, 2.000000,2.000000,1.000000,6.000000,0.500000,1.000000
40, test, 1, no_probe, 3, 4, 3, 3, 4, 0.7, 0.6, right, 2, 0.3, 0.4, 0.6, 0.7, 1.810929900035262, 1, , , 2.000000, 2.000000, 1.000000,2.000000,1.000000,6.000000,0.500000,1.000000
40, test, 1, probe, 4, 3, 1, 1, 3, 0.6, 0.3, right, 2, 0.3, 0.4, 0.6, 0.7, 1.9271269000601023, 1, 99.99795532226562, 3.483259800123051, 3.000000, 3.000000, 2.000000,2.000000,1.000000,6.000000,0.500000,1.000000
40, test, 1, no_probe, 5, 4, 1, 1, 4, 0.7, 0.3, right, 2, 0.3, 0.4, 0.6, 0.7, 1.6481605998706073, 1, , , 4.000000, 4.000000, 1.000000,2.000000,1.000000,6.000000,0.500000,1.000000
40, test, 1, probe, 6, 2, 1, 1, 2, 0.4, 0.3, right, 2, 0.3, 0.4, 0.6, 0.7, 2.646563399815932, 0, 99.9981689453125, 2.399995200103149, 4.000000, 4.000000, 2.000000,2.000000,1.000000,6.000000,0.500000,1.000000
40, test, 1, no_probe, 1, 1, 4, 1, 4, 0.3, 0.7, left, 1, 0.3, 0.4, 0.6, 0.7, 2.0818429000210017, 0, , , 0.000000, 4.000000, 1.000000,2.000000,1.000000,6.000000,0.500000,1.000000
40, test, 1, probe, 2, 3, 1, 1, 3, 0.6, 0.3, right, 2, 0.3, 0.4, 0.6, 0.7, 3.019720199983567, 1, 99.99557495117188, 5.649899800075218, 1.000000, 5.000000, 2.000000,2.000000,1.000000,6.000000,0.500000,1.000000
40, test, 1, no_probe, 3, 3, 1, 1, 3, 0.6, 0.3, right, 2, 0.3, 0.4, 0.6, 0.7, 1.8660534999798983, 1, , , 2.000000, 6.000000, 1.000000,3.000000,1.000000,6.000000,0.500000,1.000000
40, test, 1, no_probe, 4, 3, 4, 3, 4, 0.6, 0.7, left, 1, 0.3, 0.4, 0.6, 0.7, 1.7522740999702364, 1, , , 3.000000, 7.000000, 2.000000,3.000000,1.000000,6.000000,0.500000,1.000000
40, test, 1, probe, 5, 3, 4, 4, 3, 0.6, 0.7, right, 2, 0.3, 0.4, 0.6, 0.7, 1.1188008000608534, 1, 99.99835205078125, 3.7499385001137853, 4.000000, 8.000000, 3.000000,3.000000,1.000000,6.000000,0.500000,1.000000
40, test, 1, no_probe, 6, 3, 4, 4, 3, 0.6, 0.7, right, 2, 0.3, 0.4, 0.6, 0.7, 0.8131258001085371, 0, , , 4.000000, 8.000000, 1.000000,2.000000,1.000000,6.000000,0.500000,1.000000
40, test, 1, probe, 7, 4, 1, 1, 4, 0.7, 0.3, right, 2, 0.3, 0.4, 0.6, 0.7, 1.554174399934709, 1, 99.99850463867188, 8.416536099975929, 5.000000, 9.000000, 2.000000,2.000000,1.000000,6.000000,0.500000,1.000000
40, test, 1, no_probe, 8, 2, 4, 2, 4, 0.4, 0.7, left, 1, 0.3, 0.4, 0.6, 0.7, 1.5668450000230223, 1, , , 6.000000, 10.000000, 1.000000,2.000000,1.000000,6.000000,0.500000,1.000000
40, test, 1, probe, 9, 4, 1, 4, 1, 0.7, 0.3, left, 1, 0.3, 0.4, 0.6, 0.7, 1.5501625000033528, 1, 99.99932861328125, 1.8166467999108136, 7.000000, 11.000000, 2.000000,2.000000,1.000000,6.000000,0.500000,1.000000
40, test, 1, no_probe, 10, 3, 1, 1, 3, 0.6, 0.3, right, 2, 0.3, 0.4, 0.6, 0.7, 1.084028200013563, 1, , , 8.000000, 12.000000, 1.000000,3.000000,1.000000,6.000000,0.500000,1.000000
40, test, 1, no_probe, 11, 2, 4, 4, 2, 0.4, 0.7, right, 2, 0.3, 0.4, 0.6, 0.7, 1.6900035000871867, 0, , , 8.000000, 12.000000, 2.000000,3.000000,1.000000,6.000000,0.500000,1.000000
40, test, 1, probe, 12, 2, 4, 2, 4, 0.4, 0.7, left, 1, 0.3, 0.4, 0.6, 0.7, 1.2485881999600679, 0, 92.9140625, 5.516599900089204, 8.000000, 12.000000, 3.000000,3.000000,1.000000,6.000000,0.500000,1.000000
40, test, 1, no_probe, 13, 3, 4, 4, 3, 0.6, 0.7, right, 2, 0.3, 0.4, 0.6, 0.7, 1.0646716998890042, 1, , , 9.000000, 13.000000, 1.000000,3.000000,1.000000,6.000000,0.500000,1.000000
40, test, 1, no_probe, 14, 2, 1, 2, 1, 0.4, 0.3, left, 1, 0.3, 0.4, 0.6, 0.7, 1.4440049000550061, 0, , , 9.000000, 13.000000, 2.000000,3.000000,1.000000,6.000000,0.500000,1.000000
40, test, 1, probe, 15, 2, 4, 4, 2, 0.4, 0.7, right, 2, 0.3, 0.4, 0.6, 0.7, 1.0117114998865873, 1, 99.99752807617188, 5.3832381998654455, 10.000000, 14.000000, 3.000000,3.000000,1.000000,6.000000,0.500000,1.000000
40, test, 1, no_probe, 16, 3, 2, 3, 2, 0.6, 0.4, left, 1, 0.3, 0.4, 0.6, 0.7, 0.8653657999821007, 0, , , 10.000000, 14.000000, 1.000000,2.000000,1.000000,6.000000,0.500000,1.000000
40, test, 1, probe, 17, 2, 1, 2, 1, 0.4, 0.3, left, 1, 0.3, 0.4, 0.6, 0.7, 1.3198949999641627, 0, 92.07669067382812, 5.6332861999981105, 10.000000, 14.000000, 2.000000,2.000000,1.000000,6.000000,0.500000,1.000000
40, test, 1, no_probe, 18, 3, 4, 4, 3, 0.6, 0.7, right, 2, 0.3, 0.4, 0.6, 0.7, 1.0137621001340449, 1, , , 11.000000, 15.000000, 1.000000,3.000000,1.000000,6.000000,0.500000,1.000000
40, test, 1, no_probe, 19, 2, 3, 2, 3, 0.4, 0.6, left, 1, 0.3, 0.4, 0.6, 0.7, 1.4265013998374343, 0, , , 11.000000, 15.000000, 2.000000,3.000000,1.000000,6.000000,0.500000,1.000000
40, test, 1, probe, 20, 2, 1, 1, 2, 0.4, 0.3, right, 2, 0.3, 0.4, 0.6, 0.7, 1.2864287998527288, 1, 100, 6.81662549986504, 12.000000, 16.000000, 3.000000,3.000000,1.000000,6.000000,0.500000,1.000000
40, test, 1, no_probe, 21, 3, 2, 3, 2, 0.6, 0.4, left, 1, 0.3, 0.4, 0.6, 0.7, 1.3505005999468267, 0, , , 12.000000, 16.000000, 1.000000,2.000000,1.000000,6.000000,0.500000,1.000000
40, test, 1, probe, 22, 2, 1, 2, 1, 0.4, 0.3, left, 1, 0.3, 0.4, 0.6, 0.7, 1.2737068000715226, 0, 84.04058837890625, 7.416533200070262, 12.000000, 16.000000, 2.000000,2.000000,1.000000,6.000000,0.500000,1.000000
40, test, 1, no_probe, 23, 2, 1, 2, 1, 0.4, 0.3, left, 1, 0.3, 0.4, 0.6, 0.7, 1.3798398000653833, 0, , , 12.000000, 16.000000, 1.000000,2.000000,1.000000,6.000000,0.500000,1.000000
40, test, 1, probe, 24, 3, 2, 3, 2, 0.6, 0.4, left, 1, 0.3, 0.4, 0.6, 0.7, 1.6612810001242906, 0, 96.82730102539062, 3.8166567999869585, 12.000000, 16.000000, 2.000000,2.000000,1.000000,6.000000,0.500000,1.000000
40, test, 1, no_probe, 25, 3, 1, 1, 3, 0.6, 0.3, right, 2, 0.3, 0.4, 0.6, 0.7, 0.7573416999075562, 1, , , 13.000000, 17.000000, 1.000000,2.000000,1.000000,6.000000,0.500000,1.000000
40, test, 2, no_probe, 1, 1, 2, 2, 1, 0.3, 0.4, right, 2, 0.3, 0.4, 0.6, 0.7, 2.390020800055936, 1, , , 1.000000, 18.000000, 1.000000,3.000000,1.000000,6.000000,0.500000,1.000000
40, test, 2, no_probe, 2, 1, 2, 1, 2, 0.3, 0.4, left, 1, 0.3, 0.4, 0.6, 0.7, 1.2710033999755979, 0, , , 1.000000, 18.000000, 2.000000,3.000000,1.000000,6.000000,0.500000,1.000000
40, test, 2, probe, 3, 1, 3, 1, 3, 0.3, 0.6, left, 1, 0.3, 0.4, 0.6, 0.7, 1.8506213000509888, 1, 99.99710083007812, 3.7495558001101017, 2.000000, 19.000000, 3.000000,3.000000,1.000000,6.000000,0.500000,1.000000
40, test, 2, no_probe, 4, 2, 3, 3, 2, 0.4, 0.6, right, 2, 0.3, 0.4, 0.6, 0.7, 1.4333534000907093, 1, , , 3.000000, 20.000000, 1.000000,3.000000,1.000000,6.000000,0.500000,1.000000
40, test, 2, no_probe, 5, 3, 4, 3, 4, 0.6, 0.7, left, 1, 0.3, 0.4, 0.6, 0.7, 1.9538392000831664, 1, , , 4.000000, 21.000000, 2.000000,3.000000,1.000000,6.000000,0.500000,1.000000
40, test, 2, probe, 6, 1, 2, 2, 1, 0.3, 0.4, right, 2, 0.3, 0.4, 0.6, 0.7, 1.5502979999873787, 0, 96.05337524414062, 2.8666081000119448, 4.000000, 21.000000, 3.000000,3.000000,1.000000,6.000000,0.500000,1.000000
40, test, 2, no_probe, 7, 4, 2, 2, 4, 0.7, 0.4, right, 2, 0.3, 0.4, 0.6, 0.7, 2.3293144998606294, 1, , , 5.000000, 22.000000, 1.000000,3.000000,1.000000,6.000000,0.500000,1.000000
40, test, 2, no_probe, 8, 4, 2, 2, 4, 0.7, 0.4, right, 2, 0.3, 0.4, 0.6, 0.7, 0.9680941000115126, 1, , , 6.000000, 23.000000, 2.000000,3.000000,1.000000,6.000000,0.500000,1.000000
40, test, 2, probe, 9, 3, 2, 3, 2, 0.6, 0.4, left, 1, 0.3, 0.4, 0.6, 0.7, 1.008574299979955, 0, 99.98947143554688, 7.266569100087509, 6.000000, 23.000000, 3.000000,3.000000,1.000000,6.000000,0.500000,1.000000
40, test, 2, no_probe, 10, 1, 2, 1, 2, 0.3, 0.4, left, 1, 0.3, 0.4, 0.6, 0.7, 1.9444497001823038, 1, , , 7.000000, 24.000000, 1.000000,2.000000,1.000000,6.000000,0.500000,1.000000
40, test, 2, probe, 11, 1, 4, 1, 4, 0.3, 0.7, left, 1, 0.3, 0.4, 0.6, 0.7, 2.608160899952054, 0, 95.79391479492188, 4.149968300014734, 7.000000, 24.000000, 2.000000,2.000000,1.000000,6.000000,0.500000,1.000000
40, test, 2, no_probe, 12, 4, 1, 1, 4, 0.7, 0.3, right, 2, 0.3, 0.4, 0.6, 0.7, 1.8589012001175433, 0, , , 7.000000, 24.000000, 1.000000,2.000000,1.000000,6.000000,0.500000,1.000000
40, test, 2, probe, 13, 3, 1, 3, 1, 0.6, 0.3, left, 1, 0.3, 0.4, 0.6, 0.7, 2.2463783998973668, 0, 99.99737548828125, 3.0333040999248624, 7.000000, 24.000000, 2.000000,2.000000,1.000000,6.000000,0.500000,1.000000
40, test, 2, no_probe, 14, 3, 4, 3, 4, 0.6, 0.7, left, 1, 0.3, 0.4, 0.6, 0.7, 1.4229537998326123, 0, , , 7.000000, 24.000000, 1.000000,3.000000,1.000000,6.000000,0.500000,1.000000
40, test, 2, no_probe, 15, 3, 2, 2, 3, 0.6, 0.4, right, 2, 0.3, 0.4, 0.6, 0.7, 1.4952535000629723, 1, , , 8.000000, 25.000000, 2.000000,3.000000,1.000000,6.000000,0.500000,1.000000
40, test, 2, probe, 16, 2, 1, 2, 1, 0.4, 0.3, left, 1, 0.3, 0.4, 0.6, 0.7, 1.5444742001127452, 0, 91.91769409179688, 4.46661869995296, 8.000000, 25.000000, 3.000000,3.000000,1.000000,6.000000,0.500000,1.000000
40, test, 2, no_probe, 17, 4, 3, 4, 3, 0.7, 0.6, left, 1, 0.3, 0.4, 0.6, 0.7, 1.7568842999171466, 1, , , 9.000000, 26.000000, 1.000000,2.000000,1.000000,6.000000,0.500000,1.000000
40, test, 2, probe, 18, 1, 4, 1, 4, 0.3, 0.7, left, 1, 0.3, 0.4, 0.6, 0.7, 2.8597377000842243, 0, 83.4073486328125, 5.566611799877137, 9.000000, 26.000000, 2.000000,2.000000,1.000000,6.000000,0.500000,1.000000
40, test, 2, no_probe, 19, 1, 3, 3, 1, 0.3, 0.6, right, 2, 0.3, 0.4, 0.6, 0.7, 1.8667999999597669, 0, , , 9.000000, 26.000000, 1.000000,3.000000,1.000000,6.000000,0.500000,1.000000
40, test, 2, no_probe, 20, 1, 2, 1, 2, 0.3, 0.4, left, 1, 0.3, 0.4, 0.6, 0.7, 2.9263751001562923, 0, , , 9.000000, 26.000000, 2.000000,3.000000,1.000000,6.000000,0.500000,1.000000
40, test, 2, probe, 21, 3, 1, 3, 1, 0.6, 0.3, left, 1, 0.3, 0.4, 0.6, 0.7, 0.9858063000719994, 1, 86.82785034179688, 4.433273900067434, 10.000000, 27.000000, 3.000000,3.000000,1.000000,6.000000,0.500000,1.000000
40, test, 2, no_probe, 22, 2, 1, 1, 2, 0.4, 0.3, right, 2, 0.3, 0.4, 0.6, 0.7, 1.1945386999286711, 1, , , 11.000000, 28.000000, 1.000000,3.000000,1.000000,6.000000,0.500000,1.000000
40, test, 2, no_probe, 23, 4, 2, 4, 2, 0.7, 0.4, left, 1, 0.3, 0.4, 0.6, 0.7, 2.1801448999904096, 1, , , 12.000000, 29.000000, 2.000000,3.000000,1.000000,6.000000,0.500000,1.000000
40, test, 2, probe, 24, 3, 4, 4, 3, 0.6, 0.7, right, 2, 0.3, 0.4, 0.6, 0.7, 2.3821612000465393, 1, 99.99948120117188, 2.366573999868706, 13.000000, 30.000000, 3.000000,3.000000,1.000000,6.000000,0.500000,1.000000
40, test, 2, no_probe, 25, 3, 2, 2, 3, 0.6, 0.4, right, 2, 0.3, 0.4, 0.6, 0.7, 1.6997787998989224, 1, , , 14.000000, 31.000000, 1.000000,3.000000,1.000000,6.000000,0.500000,1.000000
40, test, 3, no_probe, 1, 2, 4, 4, 2, 0.4, 0.7, right, 2, 0.3, 0.4, 0.6, 0.7, 0.9915860998444259, 1, , , 1.000000, 32.000000, 1.000000,3.000000,1.000000,6.000000,0.500000,1.000000
40, test, 3, no_probe, 2, 3, 4, 3, 4, 0.6, 0.7, left, 1, 0.3, 0.4, 0.6, 0.7, 1.6893843000289053, 0, , , 1.000000, 32.000000, 2.000000,3.000000,1.000000,6.000000,0.500000,1.000000
40, test, 3, probe, 3, 3, 1, 1, 3, 0.6, 0.3, right, 2, 0.3, 0.4, 0.6, 0.7, 2.3835636998992413, 1, 84.9722900390625, 4.9828267998527735, 2.000000, 33.000000, 3.000000,3.000000,1.000000,6.000000,0.500000,1.000000
40, test, 3, no_probe, 4, 2, 4, 4, 2, 0.4, 0.7, right, 2, 0.3, 0.4, 0.6, 0.7, 1.7444899999536574, 0, , , 2.000000, 33.000000, 1.000000,3.000000,1.000000,6.000000,0.500000,1.000000
40, test, 3, no_probe, 5, 3, 1, 1, 3, 0.6, 0.3, right, 2, 0.3, 0.4, 0.6, 0.7, 1.235884000081569, 0, , , 2.000000, 33.000000, 2.000000,3.000000,1.000000,6.000000,0.500000,1.000000
40, test, 3, probe, 6, 2, 3, 3, 2, 0.4, 0.6, right, 2, 0.3, 0.4, 0.6, 0.7, 2.68802720005624, 0, 87.43228149414062, 3.833267299924046, 2.000000, 33.000000, 3.000000,3.000000,1.000000,6.000000,0.500000,1.000000
40, test, 3, no_probe, 7, 3, 2, 3, 2, 0.6, 0.4, left, 1, 0.3, 0.4, 0.6, 0.7, 2.220037299906835, 1, , , 3.000000, 34.000000, 1.000000,2.000000,1.000000,6.000000,0.500000,1.000000
40, test, 3, probe, 8, 3, 4, 3, 4, 0.6, 0.7, left, 1, 0.3, 0.4, 0.6, 0.7, 2.351467699976638, 1, 93.558837890625, 2.649972999934107, 4.000000, 35.000000, 2.000000,2.000000,1.000000,6.000000,0.500000,1.000000
40, test, 3, no_probe, 9, 3, 4, 4, 3, 0.6, 0.7, right, 2, 0.3, 0.4, 0.6, 0.7, 1.2968884999863803, 0, , , 4.000000, 35.000000, 1.000000,2.000000,1.000000,6.000000,0.500000,1.000000
40, test, 3, probe, 10, 2, 3, 2, 3, 0.4, 0.6, left, 1, 0.3, 0.4, 0.6, 0.7, 1.3611522999126464, 0, 94.51766967773438, 2.083286600187421, 4.000000, 35.000000, 2.000000,2.000000,1.000000,6.000000,0.500000,1.000000
40, test, 3, no_probe, 11, 1, 3, 3, 1, 0.3, 0.6, right, 2, 0.3, 0.4, 0.6, 0.7, 2.428139799972996, 0, , , 4.000000, 35.000000, 1.000000,2.000000,1.000000,6.000000,0.500000,1.000000
40, test, 3, probe, 12, 2, 4, 4, 2, 0.4, 0.7, right, 2, 0.3, 0.4, 0.6, 0.7, 1.460775899933651, 0, 79.38400268554688, 4.283335200045258, 4.000000, 35.000000, 2.000000,2.000000,1.000000,6.000000,0.500000,1.000000
40, test, 3, abort_trial, 13
40, test, 3, no_probe, 14, 3, 2, 2, 3, 0.6, 0.4, right, 2, 0.3, 0.4, 0.6, 0.7, 0.7664447000715882, 0, , , 4.000000, 35.000000, 1.000000,3.000000,1.000000,6.000000,0.500000,1.000000
40, test, 3, no_probe, 15, 1, 3, 1, 3, 0.3, 0.6, left, 1, 0.3, 0.4, 0.6, 0.7, 1.1760484999977052, 1, , , 5.000000, 36.000000, 2.000000,3.000000,1.000000,6.000000,0.500000,1.000000
40, test, 3, probe, 16, 2, 1, 2, 1, 0.4, 0.3, left, 1, 0.3, 0.4, 0.6, 0.7, 0.7673801998607814, 0, 75.950927734375, 6.499934900086373, 5.000000, 36.000000, 3.000000,3.000000,1.000000,6.000000,0.500000,1.000000
40, test, 3, no_probe, 17, 1, 4, 4, 1, 0.3, 0.7, right, 2, 0.3, 0.4, 0.6, 0.7, 1.3617473000194877, 0, , , 5.000000, 36.000000, 1.000000,2.000000,1.000000,6.000000,0.500000,1.000000
40, test, 3, probe, 18, 2, 4, 4, 2, 0.4, 0.7, right, 2, 0.3, 0.4, 0.6, 0.7, 1.3349186000414193, 0, 68.98690795898438, 6.433221200015396, 5.000000, 36.000000, 2.000000,2.000000,1.000000,6.000000,0.500000,1.000000
40, test, 3, no_probe, 19, 3, 2, 2, 3, 0.6, 0.4, right, 2, 0.3, 0.4, 0.6, 0.7, 0.8804208000656217, 1, , , 6.000000, 37.000000, 1.000000,3.000000,1.000000,6.000000,0.500000,1.000000
40, test, 3, no_probe, 20, 3, 1, 3, 1, 0.6, 0.3, left, 1, 0.3, 0.4, 0.6, 0.7, 1.0436072000302374, 0, , , 6.000000, 37.000000, 2.000000,3.000000,1.000000,6.000000,0.500000,1.000000
40, test, 3, probe, 21, 2, 1, 2, 1, 0.4, 0.3, left, 1, 0.3, 0.4, 0.6, 0.7, 1.2263368000276387, 1, 82.4912109375, 3.2333089001476765, 7.000000, 38.000000, 3.000000,3.000000,1.000000,6.000000,0.500000,1.000000
40, test, 3, no_probe, 22, 2, 1, 1, 2, 0.4, 0.3, right, 2, 0.3, 0.4, 0.6, 0.7, 1.4044981999322772, 1, , , 8.000000, 39.000000, 1.000000,3.000000,1.000000,6.000000,0.500000,1.000000
40, test, 3, no_probe, 23, 4, 3, 4, 3, 0.7, 0.6, left, 1, 0.3, 0.4, 0.6, 0.7, 1.1390876998193562, 0, , , 8.000000, 39.000000, 2.000000,3.000000,1.000000,6.000000,0.500000,1.000000
40, test, 3, probe, 24, 3, 4, 4, 3, 0.6, 0.7, right, 2, 0.3, 0.4, 0.6, 0.7, 1.013899999903515, 1, 93.81689453125, 2.9999498000834137, 9.000000, 40.000000, 3.000000,3.000000,1.000000,6.000000,0.500000,1.000000
40, test, 3, no_probe, 25, 2, 1, 2, 1, 0.4, 0.3, left, 1, 0.3, 0.4, 0.6, 0.7, 1.2546260000672191, 1, , , 10.000000, 41.000000, 1.000000,3.000000,1.000000,6.000000,0.500000,1.000000
40, test, 4, no_probe, 1, 1, 2, 1, 2, 0.3, 0.4, left, 1, 0.3, 0.4, 0.6, 0.7, 0.9407480000518262, 1, , , 1.000000, 42.000000, 1.000000,2.000000,1.000000,6.000000,0.500000,1.000000
40, test, 4, probe, 2, 1, 4, 4, 1, 0.3, 0.7, right, 2, 0.3, 0.4, 0.6, 0.7, 1.401459600077942, 1, 99.9979248046875, 2.916657900204882, 2.000000, 43.000000, 2.000000,2.000000,1.000000,6.000000,0.500000,1.000000
40, test, 4, no_probe, 3, 1, 2, 2, 1, 0.3, 0.4, right, 2, 0.3, 0.4, 0.6, 0.7, 1.260441099992022, 1, , , 3.000000, 44.000000, 1.000000,2.000000,1.000000,6.000000,0.500000,1.000000
40, test, 4, probe, 4, 1, 2, 2, 1, 0.3, 0.4, right, 2, 0.3, 0.4, 0.6, 0.7, 0.9664870998822153, 0, 99.9984130859375, 2.733315800083801, 3.000000, 44.000000, 2.000000,2.000000,1.000000,6.000000,0.500000,1.000000
40, test, 4, no_probe, 5, 2, 3, 2, 3, 0.4, 0.6, left, 1, 0.3, 0.4, 0.6, 0.7, 2.0227543998043984, 0, , , 3.000000, 44.000000, 1.000000,2.000000,1.000000,6.000000,0.500000,1.000000
40, test, 4, probe, 6, 3, 1, 1, 3, 0.6, 0.3, right, 2, 0.3, 0.4, 0.6, 0.7, 1.7325342998374254, 1, 95.5811767578125, 4.333288399968296, 4.000000, 45.000000, 2.000000,2.000000,1.000000,6.000000,0.500000,1.000000
40, test, 4, no_probe, 7, 2, 4, 2, 4, 0.4, 0.7, left, 1, 0.3, 0.4, 0.6, 0.7, 1.6502934999298304, 0, , , 4.000000, 45.000000, 1.000000,2.000000,1.000000,6.000000,0.500000,1.000000
40, test, 4, probe, 8, 2, 4, 2, 4, 0.4, 0.7, left, 1, 0.3, 0.4, 0.6, 0.7, 1.4960026000626385, 0, 99.99807739257812, 2.8666368999984115, 4.000000, 45.000000, 2.000000,2.000000,1.000000,6.000000,0.500000,1.000000
40, test, 4, no_probe, 9, 4, 2, 2, 4, 0.7, 0.4, right, 2, 0.3, 0.4, 0.6, 0.7, 1.115122599992901, 1, , , 5.000000, 46.000000, 1.000000,2.000000,1.000000,6.000000,0.500000,1.000000
40, test, 4, probe, 10, 1, 3, 3, 1, 0.3, 0.6, right, 2, 0.3, 0.4, 0.6, 0.7, 1.442865899996832, 0, 99.99819946289062, 2.7333139998372644, 5.000000, 46.000000, 2.000000,2.000000,1.000000,6.000000,0.500000,1.000000
40, test, 4, no_probe, 11, 3, 2, 3, 2, 0.6, 0.4, left, 1, 0.3, 0.4, 0.6, 0.7, 1.6446227000560611, 0, , , 5.000000, 46.000000, 1.000000,2.000000,1.000000,6.000000,0.500000,1.000000
40, test, 4, probe, 12, 1, 4, 4, 1, 0.3, 0.7, right, 2, 0.3, 0.4, 0.6, 0.7, 1.5874518000055104, 0, 92.769775390625, 9.483181199990213, 5.000000, 46.000000, 2.000000,2.000000,1.000000,6.000000,0.500000,1.000000
40, test, 4, no_probe, 13, 4, 2, 4, 2, 0.7, 0.4, left, 1, 0.3, 0.4, 0.6, 0.7, 2.0417283000424504, 1, , , 6.000000, 47.000000, 1.000000,2.000000,1.000000,6.000000,0.500000,1.000000
40, test, 4, probe, 14, 1, 4, 1, 4, 0.3, 0.7, left, 1, 0.3, 0.4, 0.6, 0.7, 3.493675099918619, 0, 99.99945068359375, 2.2166920001618564, 6.000000, 47.000000, 2.000000,2.000000,1.000000,6.000000,0.500000,1.000000
40, test, 4, no_probe, 15, 4, 1, 4, 1, 0.7, 0.3, left, 1, 0.3, 0.4, 0.6, 0.7, 1.9378830001223832, 1, , , 7.000000, 48.000000, 1.000000,3.000000,1.000000,6.000000,0.500000,1.000000
40, test, 4, no_probe, 16, 3, 4, 3, 4, 0.6, 0.7, left, 1, 0.3, 0.4, 0.6, 0.7, 2.89729360002093, 1, , , 8.000000, 49.000000, 2.000000,3.000000,1.000000,6.000000,0.500000,1.000000
40, test, 4, probe, 17, 4, 1, 4, 1, 0.7, 0.3, left, 1, 0.3, 0.4, 0.6, 0.7, 1.8829969000071287, 0, 99.99859619140625, 3.266632999991998, 8.000000, 49.000000, 3.000000,3.000000,1.000000,6.000000,0.500000,1.000000
40, test, 4, no_probe, 18, 2, 3, 2, 3, 0.4, 0.6, left, 1, 0.3, 0.4, 0.6, 0.7, 1.601528299972415, 0, , , 8.000000, 49.000000, 1.000000,3.000000,1.000000,6.000000,0.500000,1.000000
40, test, 4, no_probe, 19, 2, 3, 3, 2, 0.4, 0.6, right, 2, 0.3, 0.4, 0.6, 0.7, 1.5148235999513417, 1, , , 9.000000, 50.000000, 2.000000,3.000000,1.000000,6.000000,0.500000,1.000000
40, test, 4, probe, 20, 4, 1, 1, 4, 0.7, 0.3, right, 2, 0.3, 0.4, 0.6, 0.7, 2.2232003998942673, 1, 99.99874877929688, 2.366576800122857, 10.000000, 51.000000, 3.000000,3.000000,1.000000,6.000000,0.500000,1.000000
40, test, 4, no_probe, 21, 2, 1, 2, 1, 0.4, 0.3, left, 1, 0.3, 0.4, 0.6, 0.7, 2.1729049999266863, 0, , , 10.000000, 51.000000, 1.000000,2.000000,1.000000,6.000000,0.500000,1.000000
40, test, 4, probe, 22, 4, 3, 4, 3, 0.7, 0.6, left, 1, 0.3, 0.4, 0.6, 0.7, 1.7983828000724316, 1, 99.99972534179688, 6.8832298999186605, 11.000000, 52.000000, 2.000000,2.000000,1.000000,6.000000,0.500000,1.000000
40, test, 4, no_probe, 23, 4, 2, 4, 2, 0.7, 0.4, left, 1, 0.3, 0.4, 0.6, 0.7, 1.2823921998497099, 1, , , 12.000000, 53.000000, 1.000000,2.000000,1.000000,6.000000,0.500000,1.000000
40, test, 4, probe, 24, 3, 4, 3, 4, 0.6, 0.7, left, 1, 0.3, 0.4, 0.6, 0.7, 1.3900276999920607, 1, 99.9986572265625, 2.4500104999169707, 13.000000, 54.000000, 2.000000,2.000000,1.000000,6.000000,0.500000,1.000000
40, test, 4, no_probe, 25, 3, 2, 2, 3, 0.6, 0.4, right, 2, 0.3, 0.4, 0.6, 0.7, 1.272421999834478, 1, , , 14.000000, 55.000000, 1.000000,3.000000,1.000000,6.000000,0.500000,1.000000
40, test, 5, no_probe, 1, 2, 3, 2, 3, 0.4, 0.6, left, 1, 0.3, 0.4, 0.6, 0.7, 0.9118194000329822, 0, , , 0.000000, 55.000000, 1.000000,3.000000,1.000000,6.000000,0.500000,1.000000
40, test, 5, no_probe, 2, 4, 3, 4, 3, 0.7, 0.6, left, 1, 0.3, 0.4, 0.6, 0.7, 1.1717407000251114, 1, , , 1.000000, 56.000000, 2.000000,3.000000,1.000000,6.000000,0.500000,1.000000
40, test, 5, probe, 3, 4, 1, 4, 1, 0.7, 0.3, left, 1, 0.3, 0.4, 0.6, 0.7, 0.7863447000272572, 0, 99.99740600585938, 3.1996092998888344, 1.000000, 56.000000, 3.000000,3.000000,1.000000,6.000000,0.500000,1.000000
40, test, 5, no_probe, 4, 4, 2, 2, 4, 0.7, 0.4, right, 2, 0.3, 0.4, 0.6, 0.7, 0.8644679998978972, 1, , , 2.000000, 57.000000, 1.000000,3.000000,1.000000,6.000000,0.500000,1.000000
40, test, 5, no_probe, 5, 1, 3, 1, 3, 0.3, 0.6, left, 1, 0.3, 0.4, 0.6, 0.7, 1.3697128999046981, 1, , , 3.000000, 58.000000, 2.000000,3.000000,1.000000,6.000000,0.500000,1.000000
40, test, 5, probe, 6, 4, 3, 3, 4, 0.7, 0.6, right, 2, 0.3, 0.4, 0.6, 0.7, 0.8577368999831378, 1, 99.99832153320312, 2.6166066001169384, 4.000000, 59.000000, 3.000000,3.000000,1.000000,6.000000,0.500000,1.000000
40, test, 5, no_probe, 7, 4, 2, 2, 4, 0.7, 0.4, right, 2, 0.3, 0.4, 0.6, 0.7, 0.717964000068605, 1, , , 5.000000, 60.000000, 1.000000,3.000000,1.000000,6.000000,0.500000,1.000000
40, test, 5, no_probe, 8, 1, 2, 1, 2, 0.3, 0.4, left, 1, 0.3, 0.4, 0.6, 0.7, 0.994411600055173, 1, , , 6.000000, 61.000000, 2.000000,3.000000,1.000000,6.000000,0.500000,1.000000
40, test, 5, probe, 9, 1, 2, 2, 1, 0.3, 0.4, right, 2, 0.3, 0.4, 0.6, 0.7, 0.7132769001182169, 1, 99.9991455078125, 2.3833466998767108, 7.000000, 62.000000, 3.000000,3.000000,1.000000,6.000000,0.500000,1.000000
40, test, 5, no_probe, 10, 4, 2, 2, 4, 0.7, 0.4, right, 2, 0.3, 0.4, 0.6, 0.7, 0.5569545000325888, 0, , , 7.000000, 62.000000, 1.000000,2.000000,1.000000,6.000000,0.500000,1.000000
40, test, 5, probe, 11, 3, 2, 2, 3, 0.6, 0.4, right, 2, 0.3, 0.4, 0.6, 0.7, 1.9553121000062674, 1, 99.99929809570312, 2.699997599935159, 8.000000, 63.000000, 2.000000,2.000000,1.000000,6.000000,0.500000,1.000000
40, test, 5, no_probe, 12, 4, 2, 2, 4, 0.7, 0.4, right, 2, 0.3, 0.4, 0.6, 0.7, 0.6933687999844551, 0, , , 8.000000, 63.000000, 1.000000,3.000000,1.000000,6.000000,0.500000,1.000000
40, test, 5, no_probe, 13, 4, 2, 4, 2, 0.7, 0.4, left, 1, 0.3, 0.4, 0.6, 0.7, 1.0553172999061644, 1, , , 9.000000, 64.000000, 2.000000,3.000000,1.000000,6.000000,0.500000,1.000000
40, test, 5, probe, 14, 3, 2, 2, 3, 0.6, 0.4, right, 2, 0.3, 0.4, 0.6, 0.7, 2.231188500067219, 1, 99.99899291992188, 4.43326810002327, 10.000000, 65.000000, 3.000000,3.000000,1.000000,6.000000,0.500000,1.000000
40, test, 5, no_probe, 15, 3, 2, 3, 2, 0.6, 0.4, left, 1, 0.3, 0.4, 0.6, 0.7, 1.1203230998944491, 1, , , 11.000000, 66.000000, 1.000000,2.000000,1.000000,6.000000,0.500000,1.000000
40, test, 5, probe, 16, 1, 3, 3, 1, 0.3, 0.6, right, 2, 0.3, 0.4, 0.6, 0.7, 1.1209460999816656, 0, 96.6448974609375, 2.483271599980071, 11.000000, 66.000000, 2.000000,2.000000,1.000000,6.000000,0.500000,1.000000
40, test, 5, no_probe, 17, 4, 3, 4, 3, 0.7, 0.6, left, 1, 0.3, 0.4, 0.6, 0.7, 0.7219936000183225, 0, , , 11.000000, 66.000000, 1.000000,2.000000,1.000000,6.000000,0.500000,1.000000
40, test, 5, probe, 18, 1, 2, 1, 2, 0.3, 0.4, left, 1, 0.3, 0.4, 0.6, 0.7, 1.098237399943173, 0, 94.22439575195312, 4.249993200181052, 11.000000, 66.000000, 2.000000,2.000000,1.000000,6.000000,0.500000,1.000000
40, test, 5, no_probe, 19, 1, 3, 1, 3, 0.3, 0.6, left, 1, 0.3, 0.4, 0.6, 0.7, 0.9166730002034456, 0, , , 11.000000, 66.000000, 1.000000,2.000000,1.000000,6.000000,0.500000,1.000000
40, test, 5, probe, 20, 3, 2, 2, 3, 0.6, 0.4, right, 2, 0.3, 0.4, 0.6, 0.7, 0.822487800149247, 0, 89.43789672851562, 1.9499059999361634, 11.000000, 66.000000, 2.000000,2.000000,1.000000,6.000000,0.500000,1.000000
40, test, 5, no_probe, 21, 1, 2, 1, 2, 0.3, 0.4, left, 1, 0.3, 0.4, 0.6, 0.7, 0.6794120999984443, 0, , , 11.000000, 66.000000, 1.000000,3.000000,1.000000,6.000000,0.500000,1.000000
40, test, 5, no_probe, 22, 4, 2, 2, 4, 0.7, 0.4, right, 2, 0.3, 0.4, 0.6, 0.7, 0.45677160006016493, 1, , , 12.000000, 67.000000, 2.000000,3.000000,1.000000,6.000000,0.500000,1.000000
40, test, 5, probe, 23, 2, 3, 3, 2, 0.4, 0.6, right, 2, 0.3, 0.4, 0.6, 0.7, 0.8168780000414699, 1, 99.99948120117188, 1.9499961000401527, 13.000000, 68.000000, 3.000000,3.000000,1.000000,6.000000,0.500000,1.000000
40, test, 5, no_probe, 24, 4, 2, 4, 2, 0.7, 0.4, left, 1, 0.3, 0.4, 0.6, 0.7, 0.6510650999844074, 1, , , 14.000000, 69.000000, 1.000000,3.000000,1.000000,6.000000,0.500000,1.000000
40, test, 5, no_probe, 25, 3, 2, 3, 2, 0.6, 0.4, left, 1, 0.3, 0.4, 0.6, 0.7, 1.4056735001504421, 1, , , 15.000000, 70.000000, 2.000000,3.000000,1.000000,6.000000,0.500000,1.000000
40, test, 6, no_probe, 1, 3, 2, 2, 3, 0.6, 0.4, right, 2, 0.3, 0.4, 0.6, 0.7, 2.427237599855289, 0, , , 0.000000, 70.000000, 1.000000,3.000000,1.000000,6.000000,0.500000,1.000000
40, test, 6, no_probe, 2, 4, 3, 3, 4, 0.7, 0.6, right, 2, 0.3, 0.4, 0.6, 0.7, 0.8433445000555366, 1, , , 1.000000, 71.000000, 2.000000,3.000000,1.000000,6.000000,0.500000,1.000000
40, test, 6, probe, 3, 3, 1, 3, 1, 0.6, 0.3, left, 1, 0.3, 0.4, 0.6, 0.7, 2.5164242000319064, 1, 90.41616821289062, 1.9495596999768168, 2.000000, 72.000000, 3.000000,3.000000,1.000000,6.000000,0.500000,1.000000
40, test, 6, no_probe, 4, 4, 3, 3, 4, 0.7, 0.6, right, 2, 0.3, 0.4, 0.6, 0.7, 0.9486763998866081, 1, , , 3.000000, 73.000000, 1.000000,2.000000,1.000000,6.000000,0.500000,1.000000
40, test, 6, probe, 5, 4, 2, 2, 4, 0.7, 0.4, right, 2, 0.3, 0.4, 0.6, 0.7, 1.5853075000923127, 1, 99.99935913085938, 1.93334069987759, 4.000000, 74.000000, 2.000000,2.000000,1.000000,6.000000,0.500000,1.000000
40, test, 6, no_probe, 6, 3, 1, 3, 1, 0.6, 0.3, left, 1, 0.3, 0.4, 0.6, 0.7, 1.6994953998364508, 1, , , 5.000000, 75.000000, 1.000000,3.000000,1.000000,6.000000,0.500000,1.000000
40, test, 6, no_probe, 7, 4, 1, 1, 4, 0.7, 0.3, right, 2, 0.3, 0.4, 0.6, 0.7, 1.2574984999373555, 0, , , 5.000000, 75.000000, 2.000000,3.000000,1.000000,6.000000,0.500000,1.000000
40, test, 6, probe, 8, 2, 3, 2, 3, 0.4, 0.6, left, 1, 0.3, 0.4, 0.6, 0.7, 1.5406577999237925, 1, 99.999267578125, 1.9166691999416798, 6.000000, 76.000000, 3.000000,3.000000,1.000000,6.000000,0.500000,1.000000
40, test, 6, no_probe, 9, 4, 3, 4, 3, 0.7, 0.6, left, 1, 0.3, 0.4, 0.6, 0.7, 1.666597899980843, 0, , , 6.000000, 76.000000, 1.000000,3.000000,1.000000,6.000000,0.500000,1.000000
40, test, 6, no_probe, 10, 2, 3, 3, 2, 0.4, 0.6, right, 2, 0.3, 0.4, 0.6, 0.7, 2.072903399821371, 1, , , 7.000000, 77.000000, 2.000000,3.000000,1.000000,6.000000,0.500000,1.000000
40, test, 6, probe, 11, 4, 1, 4, 1, 0.7, 0.3, left, 1, 0.3, 0.4, 0.6, 0.7, 1.2923670001327991, 1, 87.39700317382812, 1.9999736999161541, 8.000000, 78.000000, 3.000000,3.000000,1.000000,6.000000,0.500000,1.000000
40, test, 6, no_probe, 12, 2, 3, 3, 2, 0.4, 0.6, right, 2, 0.3, 0.4, 0.6, 0.7, 1.416394499829039, 0, , , 8.000000, 78.000000, 1.000000,2.000000,1.000000,6.000000,0.500000,1.000000
40, test, 6, probe, 13, 3, 4, 4, 3, 0.6, 0.7, right, 2, 0.3, 0.4, 0.6, 0.7, 1.2370881999377161, 1, 88.24642944335938, 2.599991000024602, 9.000000, 79.000000, 2.000000,2.000000,1.000000,6.000000,0.500000,1.000000
40, test, 6, no_probe, 14, 4, 2, 2, 4, 0.7, 0.4, right, 2, 0.3, 0.4, 0.6, 0.7, 0.97691970015876, 1, , , 10.000000, 80.000000, 1.000000,3.000000,1.000000,6.000000,0.500000,1.000000
40, test, 6, no_probe, 15, 4, 3, 3, 4, 0.7, 0.6, right, 2, 0.3, 0.4, 0.6, 0.7, 0.5634590999688953, 1, , , 11.000000, 81.000000, 2.000000,3.000000,1.000000,6.000000,0.500000,1.000000
40, test, 6, probe, 16, 2, 1, 1, 2, 0.4, 0.3, right, 2, 0.3, 0.4, 0.6, 0.7, 1.4381995999719948, 0, 89.888671875, 2.183277399977669, 11.000000, 81.000000, 3.000000,3.000000,1.000000,6.000000,0.500000,1.000000
40, test, 6, no_probe, 17, 4, 3, 3, 4, 0.7, 0.6, right, 2, 0.3, 0.4, 0.6, 0.7, 0.5658450999762863, 0, , , 11.000000, 81.000000, 1.000000,3.000000,1.000000,6.000000,0.500000,1.000000
40, test, 6, no_probe, 18, 4, 2, 4, 2, 0.7, 0.4, left, 1, 0.3, 0.4, 0.6, 0.7, 1.2435840000398457, 1, , , 12.000000, 82.000000, 2.000000,3.000000,1.000000,6.000000,0.500000,1.000000
40, test, 6, probe, 19, 1, 2, 2, 1, 0.3, 0.4, right, 2, 0.3, 0.4, 0.6, 0.7, 0.8439060000237077, 1, 99.48629760742188, 3.016663500107825, 13.000000, 83.000000, 3.000000,3.000000,1.000000,6.000000,0.500000,1.000000
40, test, 6, no_probe, 20, 1, 3, 3, 1, 0.3, 0.6, right, 2, 0.3, 0.4, 0.6, 0.7, 1.3336274998728186, 0, , , 13.000000, 83.000000, 1.000000,2.000000,1.000000,6.000000,0.500000,1.000000
40, test, 6, probe, 21, 4, 2, 4, 2, 0.7, 0.4, left, 1, 0.3, 0.4, 0.6, 0.7, 0.9174565998837352, 1, 88.33297729492188, 6.033265500096604, 14.000000, 84.000000, 2.000000,2.000000,1.000000,6.000000,0.500000,1.000000
40, test, 6, no_probe, 22, 4, 1, 1, 4, 0.7, 0.3, right, 2, 0.3, 0.4, 0.6, 0.7, 0.6796893000137061, 1, , , 15.000000, 85.000000, 1.000000,2.000000,1.000000,6.000000,0.500000,1.000000
40, test, 6, probe, 23, 4, 1, 4, 1, 0.7, 0.3, left, 1, 0.3, 0.4, 0.6, 0.7, 1.0027511999942362, 0, 88.349365234375, 1.899962400086224, 15.000000, 85.000000, 2.000000,2.000000,1.000000,6.000000,0.500000,1.000000
40, test, 6, no_probe, 24, 4, 2, 4, 2, 0.7, 0.4, left, 1, 0.3, 0.4, 0.6, 0.7, 0.9590400001034141, 1, , , 16.000000, 86.000000, 1.000000,3.000000,1.000000,6.000000,0.500000,1.000000
40, test, 6, no_probe, 25, 3, 1, 1, 3, 0.6, 0.3, right, 2, 0.3, 0.4, 0.6, 0.7, 1.0425724000670016, 1, , , 17.000000, 87.000000, 2.000000,3.000000,1.000000,6.000000,0.500000,1.000000
40, test, 7, no_probe, 1, 4, 3, 3, 4, 0.7, 0.6, right, 2, 0.3, 0.4, 0.6, 0.7, 1.0189335998147726, 1, , , 1.000000, 88.000000, 1.000000,3.000000,1.000000,6.000000,0.500000,1.000000
40, test, 7, no_probe, 2, 2, 1, 1, 2, 0.4, 0.3, right, 2, 0.3, 0.4, 0.6, 0.7, 0.756715300027281, 0, , , 1.000000, 88.000000, 2.000000,3.000000,1.000000,6.000000,0.500000,1.000000
40, test, 7, probe, 3, 4, 1, 1, 4, 0.7, 0.3, right, 2, 0.3, 0.4, 0.6, 0.7, 0.8785079000517726, 1, 73.09213256835938, 4.116261800052598, 2.000000, 89.000000, 3.000000,3.000000,1.000000,6.000000,0.500000,1.000000
40, test, 7, no_probe, 4, 3, 1, 1, 3, 0.6, 0.3, right, 2, 0.3, 0.4, 0.6, 0.7, 1.3161921000573784, 1, , , 3.000000, 90.000000, 1.000000,2.000000,1.000000,6.000000,0.500000,1.000000
40, test, 7, probe, 5, 3, 4, 3, 4, 0.6, 0.7, left, 1, 0.3, 0.4, 0.6, 0.7, 0.7729414000641555, 1, 72.74957275390625, 6.766584899974987, 4.000000, 91.000000, 2.000000,2.000000,1.000000,6.000000,0.500000,1.000000
40, test, 7, no_probe, 6, 2, 3, 3, 2, 0.4, 0.6, right, 2, 0.3, 0.4, 0.6, 0.7, 0.7223507000599056, 1, , , 5.000000, 92.000000, 1.000000,2.000000,1.000000,6.000000,0.500000,1.000000
40, test, 7, probe, 7, 4, 3, 3, 4, 0.7, 0.6, right, 2, 0.3, 0.4, 0.6, 0.7, 0.9764195000752807, 0, 74.50729370117188, 1.9332773999776691, 5.000000, 92.000000, 2.000000,2.000000,1.000000,6.000000,0.500000,1.000000
40, test, 7, no_probe, 8, 4, 1, 4, 1, 0.7, 0.3, left, 1, 0.3, 0.4, 0.6, 0.7, 0.8071097999345511, 0, , , 5.000000, 92.000000, 1.000000,3.000000,1.000000,6.000000,0.500000,1.000000
40, test, 7, no_probe, 9, 1, 4, 1, 4, 0.3, 0.7, left, 1, 0.3, 0.4, 0.6, 0.7, 0.9377917000092566, 0, , , 5.000000, 92.000000, 2.000000,3.000000,1.000000,6.000000,0.500000,1.000000
40, test, 7, probe, 10, 2, 3, 2, 3, 0.4, 0.6, left, 1, 0.3, 0.4, 0.6, 0.7, 0.6896854999940842, 0, 70.58609008789062, 2.46663839998655, 5.000000, 92.000000, 3.000000,3.000000,1.000000,6.000000,0.500000,1.000000
40, test, 7, no_probe, 11, 3, 1, 1, 3, 0.6, 0.3, right, 2, 0.3, 0.4, 0.6, 0.7, 0.778342500096187, 0, , , 5.000000, 92.000000, 1.000000,2.000000,1.000000,6.000000,0.500000,1.000000
40, test, 7, probe, 12, 4, 1, 1, 4, 0.7, 0.3, right, 2, 0.3, 0.4, 0.6, 0.7, 0.6699616999831051, 1, 67.37918090820312, 3.983286099974066, 6.000000, 93.000000, 2.000000,2.000000,1.000000,6.000000,0.500000,1.000000
40, test, 7, no_probe, 13, 2, 3, 2, 3, 0.4, 0.6, left, 1, 0.3, 0.4, 0.6, 0.7, 0.7716677999123931, 0, , , 6.000000, 93.000000, 1.000000,2.000000,1.000000,6.000000,0.500000,1.000000
40, test, 7, probe, 14, 3, 2, 2, 3, 0.6, 0.4, right, 2, 0.3, 0.4, 0.6, 0.7, 0.6855357999447733, 1, 72.31793212890625, 1.866668100003153, 7.000000, 94.000000, 2.000000,2.000000,1.000000,6.000000,0.500000,1.000000
40, test, 7, no_probe, 15, 2, 4, 4, 2, 0.4, 0.7, right, 2, 0.3, 0.4, 0.6, 0.7, 0.7530330999288708, 0, , , 7.000000, 94.000000, 1.000000,2.000000,1.000000,6.000000,0.500000,1.000000
40, test, 7, probe, 16, 3, 1, 1, 3, 0.6, 0.3, right, 2, 0.3, 0.4, 0.6, 0.7, 1.6434967000968754, 0, 70.83929443359375, 2.433311899891123, 7.000000, 94.000000, 2.000000,2.000000,1.000000,6.000000,0.500000,1.000000
40, test, 7, no_probe, 17, 2, 1, 2, 1, 0.4, 0.3, left, 1, 0.3, 0.4, 0.6, 0.7, 1.329917100025341, 0, , , 7.000000, 94.000000, 1.000000,3.000000,1.000000,6.000000,0.500000,1.000000
40, test, 7, no_probe, 18, 3, 2, 3, 2, 0.6, 0.4, left, 1, 0.3, 0.4, 0.6, 0.7, 1.464772499864921, 1, , , 8.000000, 95.000000, 2.000000,3.000000,1.000000,6.000000,0.500000,1.000000
40, test, 7, probe, 19, 3, 1, 1, 3, 0.6, 0.3, right, 2, 0.3, 0.4, 0.6, 0.7, 0.7764260999392718, 0, 71.90560913085938, 2.349951099837199, 8.000000, 95.000000, 3.000000,3.000000,1.000000,6.000000,0.500000,1.000000
40, test, 7, no_probe, 20, 4, 3, 3, 4, 0.7, 0.6, right, 2, 0.3, 0.4, 0.6, 0.7, 1.4236725000664592, 1, , , 9.000000, 96.000000, 1.000000,2.000000,1.000000,6.000000,0.500000,1.000000
40, test, 7, probe, 21, 3, 2, 2, 3, 0.6, 0.4, right, 2, 0.3, 0.4, 0.6, 0.7, 1.1551453999709338, 1, 79.214599609375, 2.5499716999474913, 10.000000, 97.000000, 2.000000,2.000000,1.000000,6.000000,0.500000,1.000000
40, test, 7, no_probe, 22, 3, 2, 2, 3, 0.6, 0.4, right, 2, 0.3, 0.4, 0.6, 0.7, 1.1112377000972629, 1, , , 11.000000, 98.000000, 1.000000,2.000000,1.000000,6.000000,0.500000,1.000000
40, test, 7, probe, 23, 4, 2, 4, 2, 0.7, 0.4, left, 1, 0.3, 0.4, 0.6, 0.7, 1.0760814000386745, 0, 84.46368408203125, 3.366639999905601, 11.000000, 98.000000, 2.000000,2.000000,1.000000,6.000000,0.500000,1.000000
40, test, 7, no_probe, 24, 4, 1, 1, 4, 0.7, 0.3, right, 2, 0.3, 0.4, 0.6, 0.7, 1.1119565998669714, 0, , , 11.000000, 98.000000, 1.000000,3.000000,1.000000,6.000000,0.500000,1.000000
40, test, 7, no_probe, 25, 3, 1, 3, 1, 0.6, 0.3, left, 1, 0.3, 0.4, 0.6, 0.7, 0.82498349994421, 1, , , 12.000000, 99.000000, 2.000000,3.000000,1.000000,6.000000,0.500000,1.000000
40, test, 8, no_probe, 1, 3, 2, 2, 3, 0.6, 0.4, right, 2, 0.3, 0.4, 0.6, 0.7, 1.3851483999751508, 1, , , 1.000000, 100.000000, 1.000000,2.000000,1.000000,6.000000,0.500000,1.000000
40, test, 8, probe, 2, 4, 3, 4, 3, 0.7, 0.6, left, 1, 0.3, 0.4, 0.6, 0.7, 1.2911265001166612, 1, 99.9986572265625, 2.56668039993383, 2.000000, 101.000000, 2.000000,2.000000,1.000000,6.000000,0.500000,1.000000
40, test, 8, no_probe, 3, 3, 2, 3, 2, 0.6, 0.4, left, 1, 0.3, 0.4, 0.6, 0.7, 2.485333199845627, 1, , , 3.000000, 102.000000, 1.000000,3.000000,1.000000,6.000000,0.500000,1.000000
40, test, 8, no_probe, 4, 4, 1, 1, 4, 0.7, 0.3, right, 2, 0.3, 0.4, 0.6, 0.7, 1.1472283001057804, 1, , , 4.000000, 103.000000, 2.000000,3.000000,1.000000,6.000000,0.500000,1.000000
40, test, 8, probe, 5, 3, 2, 2, 3, 0.6, 0.4, right, 2, 0.3, 0.4, 0.6, 0.7, 1.7701407000422478, 1, 99.9990234375, 2.183254800038412, 5.000000, 104.000000, 3.000000,3.000000,1.000000,6.000000,0.500000,1.000000
40, test, 8, no_probe, 6, 3, 1, 1, 3, 0.6, 0.3, right, 2, 0.3, 0.4, 0.6, 0.7, 1.4208734000567347, 0, , , 5.000000, 104.000000, 1.000000,2.000000,1.000000,6.000000,0.500000,1.000000
40, test, 8, probe, 7, 3, 2, 2, 3, 0.6, 0.4, right, 2, 0.3, 0.4, 0.6, 0.7, 1.172379600116983, 0, 99.99954223632812, 1.8333261001389474, 5.000000, 104.000000, 2.000000,2.000000,1.000000,6.000000,0.500000,1.000000
40, test, 8, no_probe, 8, 1, 4, 4, 1, 0.3, 0.7, right, 2, 0.3, 0.4, 0.6, 0.7, 1.6361808001529425, 0, , , 5.000000, 104.000000, 1.000000,3.000000,1.000000,6.000000,0.500000,1.000000
40, test, 8, no_probe, 9, 4, 1, 4, 1, 0.7, 0.3, left, 1, 0.3, 0.4, 0.6, 0.7, 0.9174428000114858, 1, , , 6.000000, 105.000000, 2.000000,3.000000,1.000000,6.000000,0.500000,1.000000
40, test, 8, probe, 10, 3, 1, 3, 1, 0.6, 0.3, left, 1, 0.3, 0.4, 0.6, 0.7, 1.4301970000378788, 1, 99.99957275390625, 1.7999898998532444, 7.000000, 106.000000, 3.000000,3.000000,1.000000,6.000000,0.500000,1.000000
40, test, 8, no_probe, 11, 3, 1, 1, 3, 0.6, 0.3, right, 2, 0.3, 0.4, 0.6, 0.7, 1.032355200033635, 1, , , 8.000000, 107.000000, 1.000000,3.000000,1.000000,6.000000,0.500000,1.000000
40, test, 8, no_probe, 12, 3, 2, 2, 3, 0.6, 0.4, right, 2, 0.3, 0.4, 0.6, 0.7, 1.1613942000549287, 0, , , 8.000000, 107.000000, 2.000000,3.000000,1.000000,6.000000,0.500000,1.000000
40, test, 8, probe, 13, 4, 3, 3, 4, 0.7, 0.6, right, 2, 0.3, 0.4, 0.6, 0.7, 1.4673049000557512, 1, 99.99951171875, 2.04999509989284, 9.000000, 108.000000, 3.000000,3.000000,1.000000,6.000000,0.500000,1.000000
40, test, 8, no_probe, 14, 4, 1, 1, 4, 0.7, 0.3, right, 2, 0.3, 0.4, 0.6, 0.7, 0.8633648999966681, 0, , , 9.000000, 108.000000, 1.000000,2.000000,1.000000,6.000000,0.500000,1.000000
40, test, 8, probe, 15, 4, 2, 2, 4, 0.7, 0.4, right, 2, 0.3, 0.4, 0.6, 0.7, 0.9130162000656128, 1, 97.63107299804688, 2.7999676999170333, 10.000000, 109.000000, 2.000000,2.000000,1.000000,6.000000,0.500000,1.000000
40, test, 8, no_probe, 16, 3, 2, 3, 2, 0.6, 0.4, left, 1, 0.3, 0.4, 0.6, 0.7, 1.3322124001570046, 0, , , 10.000000, 109.000000, 1.000000,3.000000,1.000000,6.000000,0.500000,1.000000
40, test, 8, no_probe, 17, 2, 3, 3, 2, 0.4, 0.6, right, 2, 0.3, 0.4, 0.6, 0.7, 0.6680069998838007, 0, , , 10.000000, 109.000000, 2.000000,3.000000,1.000000,6.000000,0.500000,1.000000
40, test, 8, probe, 18, 4, 3, 3, 4, 0.7, 0.6, right, 2, 0.3, 0.4, 0.6, 0.7, 0.8631027000956237, 1, 99.99905395507812, 2.2000099001452327, 11.000000, 110.000000, 3.000000,3.000000,1.000000,6.000000,0.500000,1.000000
40, test, 8, no_probe, 19, 3, 1, 1, 3, 0.6, 0.3, right, 2, 0.3, 0.4, 0.6, 0.7, 1.0496785999275744, 1, , , 12.000000, 111.000000, 1.000000,3.000000,1.000000,6.000000,0.500000,1.000000
40, test, 8, no_probe, 20, 3, 1, 1, 3, 0.6, 0.3, right, 2, 0.3, 0.4, 0.6, 0.7, 0.6639506998471916, 1, , , 13.000000, 112.000000, 2.000000,3.000000,1.000000,6.000000,0.500000,1.000000
40, test, 8, probe, 21, 4, 3, 4, 3, 0.7, 0.6, left, 1, 0.3, 0.4, 0.6, 0.7, 0.8987519000656903, 1, 99.99951171875, 1.9499648998025805, 14.000000, 113.000000, 3.000000,3.000000,1.000000,6.000000,0.500000,1.000000
40, test, 8, no_probe, 22, 4, 3, 4, 3, 0.7, 0.6, left, 1, 0.3, 0.4, 0.6, 0.7, 0.6408462000545114, 1, , , 15.000000, 114.000000, 1.000000,3.000000,1.000000,6.000000,0.500000,1.000000
40, test, 8, no_probe, 23, 2, 1, 1, 2, 0.4, 0.3, right, 2, 0.3, 0.4, 0.6, 0.7, 1.0697117999661714, 0, , , 15.000000, 114.000000, 2.000000,3.000000,1.000000,6.000000,0.500000,1.000000
40, test, 8, probe, 24, 3, 1, 1, 3, 0.6, 0.3, right, 2, 0.3, 0.4, 0.6, 0.7, 1.1072470999788493, 1, 93.25698852539062, 2.51666700001806, 16.000000, 115.000000, 3.000000,3.000000,1.000000,6.000000,0.500000,1.000000
40, test, 8, no_probe, 25, 2, 1, 2, 1, 0.4, 0.3, left, 1, 0.3, 0.4, 0.6, 0.7, 0.9474844001233578, 0, , , 16.000000, 115.000000, 1.000000,3.000000,1.000000,6.000000,0.500000,1.000000
