subject, block_type, block, thought probe, trial, chosen, unchosen, offer_left_image, offer_right_image, exp_value_chosen, exp_value_unchosen, choice_location, choice_key, exp_value1, exp_value2, exp_value3, exp_value4, RT, reward, vas, RT_vas, coins_per_block, coins_per_task, count_to_prob, ntrial_to_prob, ITI_duration,RT_deadline,choice_feedback_duration,outcome_duration
29, test, 1, no_probe, 1, 2, 4, 4, 2, 0.4, 0.7, right, 2, 0.3, 0.4, 0.6, 0.7, 1.7137981000123546, 1, , , 1.000000, 1.000000, 1.000000,3.000000,1.000000,6.000000,0.500000,1.000000
29, test, 1, no_probe, 2, 2, 1, 2, 1, 0.4, 0.3, left, 1, 0.3, 0.4, 0.6, 0.7, 0.9614454000256956, 0, , , 1.000000, 1.000000, 2.000000,3.000000,1.000000,6.000000,0.500000,1.000000
29, test, 1, probe, 3, 3, 4, 4, 3, 0.6, 0.7, right, 2, 0.3, 0.4, 0.6, 0.7, 1.1857718999963254, 0, 99.99737548828125, 5.866710599977523, 1.000000, 1.000000, 3.000000,3.000000,1.000000,6.000000,0.500000,1.000000
29, test, 1, no_probe, 4, 2, 4, 2, 4, 0.4, 0.7, left, 1, 0.3, 0.4, 0.6, 0.7, 1.1153472000733018, 0, , , 1.000000, 1.000000, 1.000000,2.000000,1.000000,6.000000,0.500000,1.000000
29, test, 1, probe, 5, 4, 3, 4, 3, 0.7, 0.6, left, 1, 0.3, 0.4, 0.6, 0.7, 0.6165201000403613, 1, 99.99874877929688, 3.3166708000935614, 2.000000, 2.000000, 2.000000,2.000000,1.000000,6.000000,0.500000,1.000000
29, test, 1, no_probe, 6, 3, 4, 4, 3, 0.6, 0.7, right, 2, 0.3, 0.4, 0.6, 0.7, 1.4031991999363527, 1, , , 3.000000, 3.000000, 1.000000,2.000000,1.000000,6.000000,0.500000,1.000000
29, test, 1, no_probe, 1, 3, 2, 2, 3, 0.6, 0.4, right, 2, 0.3, 0.4, 0.6, 0.7, 0.582379600033164, 1, , , 1.000000, 4.000000, 1.000000,3.000000,1.000000,6.000000,0.500000,1.000000
29, test, 1, no_probe, 2, 2, 1, 2, 1, 0.4, 0.3, left, 1, 0.3, 0.4, 0.6, 0.7, 0.6557117999764159, 0, , , 1.000000, 4.000000, 2.000000,3.000000,1.000000,6.000000,0.500000,1.000000
29, test, 1, probe, 3, 3, 1, 1, 3, 0.6, 0.3, right, 2, 0.3, 0.4, 0.6, 0.7, 0.4521301999920979, 1, 99.99911499023438, 3.0330107000190765, 2.000000, 5.000000, 3.000000,3.000000,1.000000,6.000000,0.500000,1.000000
29, test, 1, no_probe, 4, 2, 4, 2, 4, 0.4, 0.7, left, 1, 0.3, 0.4, 0.6, 0.7, 0.7407666000071913, 0, , , 2.000000, 5.000000, 1.000000,2.000000,1.000000,6.000000,0.500000,1.000000
29, test, 1, probe, 5, 4, 2, 4, 2, 0.7, 0.4, left, 1, 0.3, 0.4, 0.6, 0.7, 0.9215747000416741, 1, 99.9990234375, 3.0999925000360236, 3.000000, 6.000000, 2.000000,2.000000,1.000000,6.000000,0.500000,1.000000
29, test, 1, no_probe, 6, 4, 1, 4, 1, 0.7, 0.3, left, 1, 0.3, 0.4, 0.6, 0.7, 0.8309620999498293, 1, , , 4.000000, 7.000000, 1.000000,3.000000,1.000000,6.000000,0.500000,1.000000
29, test, 1, no_probe, 7, 3, 1, 3, 1, 0.6, 0.3, left, 1, 0.3, 0.4, 0.6, 0.7, 0.6639859999995679, 0, , , 4.000000, 7.000000, 2.000000,3.000000,1.000000,6.000000,0.500000,1.000000
29, test, 1, probe, 8, 1, 3, 3, 1, 0.3, 0.6, right, 2, 0.3, 0.4, 0.6, 0.7, 0.933574799913913, 0, 76.48287963867188, 3.0833458000561222, 4.000000, 7.000000, 3.000000,3.000000,1.000000,6.000000,0.500000,1.000000
29, test, 1, no_probe, 9, 1, 3, 1, 3, 0.3, 0.6, left, 1, 0.3, 0.4, 0.6, 0.7, 0.8741075000725687, 0, , , 4.000000, 7.000000, 1.000000,3.000000,1.000000,6.000000,0.500000,1.000000
29, test, 1, no_probe, 10, 2, 3, 2, 3, 0.4, 0.6, left, 1, 0.3, 0.4, 0.6, 0.7, 0.8957196000264958, 0, , , 4.000000, 7.000000, 2.000000,3.000000,1.000000,6.000000,0.500000,1.000000
29, test, 1, probe, 11, 4, 3, 4, 3, 0.7, 0.6, left, 1, 0.3, 0.4, 0.6, 0.7, 0.8818696999223903, 0, 67.78408813476562, 2.616636599996127, 4.000000, 7.000000, 3.000000,3.000000,1.000000,6.000000,0.500000,1.000000
29, test, 1, no_probe, 12, 4, 1, 1, 4, 0.7, 0.3, right, 2, 0.3, 0.4, 0.6, 0.7, 1.1666088999481872, 1, , , 5.000000, 8.000000, 1.000000,3.000000,1.000000,6.000000,0.500000,1.000000
29, test, 1, no_probe, 13, 4, 3, 4, 3, 0.7, 0.6, left, 1, 0.3, 0.4, 0.6, 0.7, 0.5855063999770209, 0, , , 5.000000, 8.000000, 2.000000,3.000000,1.000000,6.000000,0.500000,1.000000
29, test, 1, probe, 14, 4, 2, 4, 2, 0.7, 0.4, left, 1, 0.3, 0.4, 0.6, 0.7, 0.8721428000135347, 1, 83.17678833007812, 2.7999927999917418, 6.000000, 9.000000, 3.000000,3.000000,1.000000,6.000000,0.500000,1.000000
29, test, 1, no_probe, 15, 3, 1, 1, 3, 0.6, 0.3, right, 2, 0.3, 0.4, 0.6, 0.7, 1.3767958000535145, 0, , , 6.000000, 9.000000, 1.000000,2.000000,1.000000,6.000000,0.500000,1.000000
29, test, 1, probe, 16, 2, 4, 4, 2, 0.4, 0.7, right, 2, 0.3, 0.4, 0.6, 0.7, 0.70760700001847, 0, 63.37908935546875, 2.849999799975194, 6.000000, 9.000000, 2.000000,2.000000,1.000000,6.000000,0.500000,1.000000
29, test, 1, no_probe, 17, 1, 2, 1, 2, 0.3, 0.4, left, 1, 0.3, 0.4, 0.6, 0.7, 1.71669330005534, 1, , , 7.000000, 10.000000, 1.000000,3.000000,1.000000,6.000000,0.500000,1.000000
29, test, 1, no_probe, 18, 4, 3, 3, 4, 0.7, 0.6, right, 2, 0.3, 0.4, 0.6, 0.7, 0.9061929999152198, 1, , , 8.000000, 11.000000, 2.000000,3.000000,1.000000,6.000000,0.500000,1.000000
29, test, 1, probe, 19, 3, 2, 3, 2, 0.6, 0.4, left, 1, 0.3, 0.4, 0.6, 0.7, 1.1351688000140712, 1, 99.99896240234375, 2.700010000029579, 9.000000, 12.000000, 3.000000,3.000000,1.000000,6.000000,0.500000,1.000000
29, test, 1, no_probe, 20, 1, 3, 3, 1, 0.3, 0.6, right, 2, 0.3, 0.4, 0.6, 0.7, 1.5261432999977842, 0, , , 9.000000, 12.000000, 1.000000,3.000000,1.000000,6.000000,0.500000,1.000000
29, test, 1, no_probe, 21, 3, 2, 3, 2, 0.6, 0.4, left, 1, 0.3, 0.4, 0.6, 0.7, 0.8785693000536412, 1, , , 10.000000, 13.000000, 2.000000,3.000000,1.000000,6.000000,0.500000,1.000000
29, test, 1, probe, 22, 4, 3, 4, 3, 0.7, 0.6, left, 1, 0.3, 0.4, 0.6, 0.7, 0.9340821000514552, 1, 99.99920654296875, 2.316651099943556, 11.000000, 14.000000, 3.000000,3.000000,1.000000,6.000000,0.500000,1.000000
29, test, 1, no_probe, 23, 3, 1, 3, 1, 0.6, 0.3, left, 1, 0.3, 0.4, 0.6, 0.7, 1.1555274999700487, 0, , , 11.000000, 14.000000, 1.000000,3.000000,1.000000,6.000000,0.500000,1.000000
29, test, 1, no_probe, 24, 4, 1, 1, 4, 0.7, 0.3, right, 2, 0.3, 0.4, 0.6, 0.7, 0.6656950999749824, 1, , , 12.000000, 15.000000, 2.000000,3.000000,1.000000,6.000000,0.500000,1.000000
29, test, 1, probe, 25, 4, 1, 4, 1, 0.7, 0.3, left, 1, 0.3, 0.4, 0.6, 0.7, 0.8255467999260873, 1, 99.99911499023438, 2.3500003999797627, 13.000000, 16.000000, 3.000000,3.000000,1.000000,6.000000,0.500000,1.000000
29, test, 2, no_probe, 1, 2, 1, 2, 1, 0.4, 0.3, left, 1, 0.3, 0.4, 0.6, 0.7, 0.9825476000551134, 1, , , 1.000000, 17.000000, 1.000000,3.000000,1.000000,6.000000,0.500000,1.000000
29, test, 2, no_probe, 2, 1, 3, 1, 3, 0.3, 0.6, left, 1, 0.3, 0.4, 0.6, 0.7, 1.0712076000636443, 1, , , 2.000000, 18.000000, 2.000000,3.000000,1.000000,6.000000,0.500000,1.000000
29, test, 2, probe, 3, 2, 3, 3, 2, 0.4, 0.6, right, 2, 0.3, 0.4, 0.6, 0.7, 0.7978647999698296, 0, 85.20220947265625, 3.0996517000021413, 2.000000, 18.000000, 3.000000,3.000000,1.000000,6.000000,0.500000,1.000000
29, test, 2, no_probe, 4, 3, 4, 3, 4, 0.6, 0.7, left, 1, 0.3, 0.4, 0.6, 0.7, 0.7348432999569923, 1, , , 3.000000, 19.000000, 1.000000,2.000000,1.000000,6.000000,0.500000,1.000000
29, test, 2, probe, 5, 3, 4, 4, 3, 0.6, 0.7, right, 2, 0.3, 0.4, 0.6, 0.7, 0.5258259000256658, 1, 99.99935913085938, 2.2332461000187322, 4.000000, 20.000000, 2.000000,2.000000,1.000000,6.000000,0.500000,1.000000
29, test, 2, no_probe, 6, 3, 2, 2, 3, 0.6, 0.4, right, 2, 0.3, 0.4, 0.6, 0.7, 1.423464099992998, 0, , , 4.000000, 20.000000, 1.000000,2.000000,1.000000,6.000000,0.500000,1.000000
29, test, 2, probe, 7, 2, 4, 4, 2, 0.4, 0.7, right, 2, 0.3, 0.4, 0.6, 0.7, 0.6095894000027329, 0, 82.75198364257812, 2.233246700023301, 4.000000, 20.000000, 2.000000,2.000000,1.000000,6.000000,0.500000,1.000000
29, test, 2, no_probe, 8, 4, 2, 2, 4, 0.7, 0.4, right, 2, 0.3, 0.4, 0.6, 0.7, 1.9482984999194741, 0, , , 4.000000, 20.000000, 1.000000,3.000000,1.000000,6.000000,0.500000,1.000000
29, test, 2, no_probe, 9, 3, 4, 4, 3, 0.6, 0.7, right, 2, 0.3, 0.4, 0.6, 0.7, 0.6035519000142813, 1, , , 5.000000, 21.000000, 2.000000,3.000000,1.000000,6.000000,0.500000,1.000000
29, test, 2, probe, 10, 1, 2, 1, 2, 0.3, 0.4, left, 1, 0.3, 0.4, 0.6, 0.7, 1.399916599970311, 1, 99.9993896484375, 2.03328940004576, 6.000000, 22.000000, 3.000000,3.000000,1.000000,6.000000,0.500000,1.000000
29, test, 2, no_probe, 11, 1, 4, 4, 1, 0.3, 0.7, right, 2, 0.3, 0.4, 0.6, 0.7, 1.0275525000179186, 0, , , 6.000000, 22.000000, 1.000000,2.000000,1.000000,6.000000,0.500000,1.000000
29, test, 2, probe, 12, 2, 1, 1, 2, 0.4, 0.3, right, 2, 0.3, 0.4, 0.6, 0.7, 1.4472165999468416, 1, 99.99923706054688, 2.2999725999543443, 7.000000, 23.000000, 2.000000,2.000000,1.000000,6.000000,0.500000,1.000000
29, test, 2, no_probe, 13, 3, 4, 4, 3, 0.6, 0.7, right, 2, 0.3, 0.4, 0.6, 0.7, 0.6334562000120059, 1, , , 8.000000, 24.000000, 1.000000,2.000000,1.000000,6.000000,0.500000,1.000000
29, test, 2, probe, 14, 2, 3, 3, 2, 0.4, 0.6, right, 2, 0.3, 0.4, 0.6, 0.7, 0.7581866999389604, 0, 78.3028564453125, 1.9666465000482276, 8.000000, 24.000000, 2.000000,2.000000,1.000000,6.000000,0.500000,1.000000
29, test, 2, no_probe, 15, 1, 2, 1, 2, 0.3, 0.4, left, 1, 0.3, 0.4, 0.6, 0.7, 1.2164691999787465, 0, , , 8.000000, 24.000000, 1.000000,3.000000,1.000000,6.000000,0.500000,1.000000
29, test, 2, no_probe, 16, 2, 4, 4, 2, 0.4, 0.7, right, 2, 0.3, 0.4, 0.6, 0.7, 0.713470600079745, 1, , , 9.000000, 25.000000, 2.000000,3.000000,1.000000,6.000000,0.500000,1.000000
29, test, 2, probe, 17, 2, 1, 2, 1, 0.4, 0.3, left, 1, 0.3, 0.4, 0.6, 0.7, 1.1070839999010786, 0, 67.58843994140625, 1.9666806999593973, 9.000000, 25.000000, 3.000000,3.000000,1.000000,6.000000,0.500000,1.000000
29, test, 2, no_probe, 18, 1, 4, 4, 1, 0.3, 0.7, right, 2, 0.3, 0.4, 0.6, 0.7, 1.4239030999597162, 0, , , 9.000000, 25.000000, 1.000000,2.000000,1.000000,6.000000,0.500000,1.000000
29, test, 2, probe, 19, 3, 4, 3, 4, 0.6, 0.7, left, 1, 0.3, 0.4, 0.6, 0.7, 0.5975342000601813, 1, 87.143310546875, 2.550032200058922, 10.000000, 26.000000, 2.000000,2.000000,1.000000,6.000000,0.500000,1.000000
29, test, 2, no_probe, 20, 3, 4, 4, 3, 0.6, 0.7, right, 2, 0.3, 0.4, 0.6, 0.7, 1.090102400048636, 0, , , 10.000000, 26.000000, 1.000000,2.000000,1.000000,6.000000,0.500000,1.000000
29, test, 2, probe, 21, 2, 1, 1, 2, 0.4, 0.3, right, 2, 0.3, 0.4, 0.6, 0.7, 0.7092159000458196, 1, 80.76596069335938, 1.9667012999998406, 11.000000, 27.000000, 2.000000,2.000000,1.000000,6.000000,0.500000,1.000000
29, test, 2, no_probe, 22, 2, 4, 2, 4, 0.4, 0.7, left, 1, 0.3, 0.4, 0.6, 0.7, 1.0508714999305084, 0, , , 11.000000, 27.000000, 1.000000,3.000000,1.000000,6.000000,0.500000,1.000000
29, test, 2, no_probe, 23, 1, 4, 4, 1, 0.3, 0.7, right, 2, 0.3, 0.4, 0.6, 0.7, 1.930424000020139, 1, , , 12.000000, 28.000000, 2.000000,3.000000,1.000000,6.000000,0.500000,1.000000
29, test, 2, probe, 24, 3, 4, 3, 4, 0.6, 0.7, left, 1, 0.3, 0.4, 0.6, 0.7, 0.7012109999777749, 1, 82.97067260742188, 1.8166162999114022, 13.000000, 29.000000, 3.000000,3.000000,1.000000,6.000000,0.500000,1.000000
29, test, 2, no_probe, 25, 1, 2, 2, 1, 0.3, 0.4, right, 2, 0.3, 0.4, 0.6, 0.7, 1.3763609000016004, 0, , , 13.000000, 29.000000, 1.000000,2.000000,1.000000,6.000000,0.500000,1.000000
29, test, 3, no_probe, 1, 2, 1, 1, 2, 0.4, 0.3, right, 2, 0.3, 0.4, 0.6, 0.7, 0.4483695999952033, 0, , , 0.000000, 29.000000, 1.000000,2.000000,1.000000,6.000000,0.500000,1.000000
29, test, 3, probe, 2, 1, 4, 4, 1, 0.3, 0.7, right, 2, 0.3, 0.4, 0.6, 0.7, 0.9523759000003338, 1, 99.99862670898438, 2.633347800001502, 1.000000, 30.000000, 2.000000,2.000000,1.000000,6.000000,0.500000,1.000000
29, test, 3, no_probe, 3, 2, 4, 4, 2, 0.4, 0.7, right, 2, 0.3, 0.4, 0.6, 0.7, 0.6495144000509754, 1, , , 2.000000, 31.000000, 1.000000,3.000000,1.000000,6.000000,0.500000,1.000000
29, test, 3, no_probe, 4, 3, 1, 3, 1, 0.6, 0.3, left, 1, 0.3, 0.4, 0.6, 0.7, 1.2118984999833629, 1, , , 3.000000, 32.000000, 2.000000,3.000000,1.000000,6.000000,0.500000,1.000000
29, test, 3, probe, 5, 1, 4, 1, 4, 0.3, 0.7, left, 1, 0.3, 0.4, 0.6, 0.7, 1.4932254999876022, 0, 82.0916748046875, 1.9332911999663338, 3.000000, 32.000000, 3.000000,3.000000,1.000000,6.000000,0.500000,1.000000
29, test, 3, no_probe, 6, 2, 4, 2, 4, 0.4, 0.7, left, 1, 0.3, 0.4, 0.6, 0.7, 2.5557613000273705, 0, , , 3.000000, 32.000000, 1.000000,2.000000,1.000000,6.000000,0.500000,1.000000
29, test, 3, probe, 7, 1, 3, 3, 1, 0.3, 0.6, right, 2, 0.3, 0.4, 0.6, 0.7, 0.9008564999094233, 0, 74.05548095703125, 1.8666547000175342, 3.000000, 32.000000, 2.000000,2.000000,1.000000,6.000000,0.500000,1.000000
29, test, 3, no_probe, 8, 1, 4, 4, 1, 0.3, 0.7, right, 2, 0.3, 0.4, 0.6, 0.7, 1.3780331999296322, 0, , , 3.000000, 32.000000, 1.000000,3.000000,1.000000,6.000000,0.500000,1.000000
29, test, 3, no_probe, 9, 1, 3, 3, 1, 0.3, 0.6, right, 2, 0.3, 0.4, 0.6, 0.7, 1.1718806000426412, 0, , , 3.000000, 32.000000, 2.000000,3.000000,1.000000,6.000000,0.500000,1.000000
29, test, 3, probe, 10, 2, 3, 3, 2, 0.4, 0.6, right, 2, 0.3, 0.4, 0.6, 0.7, 0.6954889999469742, 1, 76.13613891601562, 1.9500021999701858, 4.000000, 33.000000, 3.000000,3.000000,1.000000,6.000000,0.500000,1.000000
29, test, 3, no_probe, 11, 2, 4, 2, 4, 0.4, 0.7, left, 1, 0.3, 0.4, 0.6, 0.7, 0.8731642999919131, 1, , , 5.000000, 34.000000, 1.000000,3.000000,1.000000,6.000000,0.500000,1.000000
29, test, 3, no_probe, 12, 2, 1, 1, 2, 0.4, 0.3, right, 2, 0.3, 0.4, 0.6, 0.7, 0.7318323000799865, 0, , , 5.000000, 34.000000, 2.000000,3.000000,1.000000,6.000000,0.500000,1.000000
29, test, 3, probe, 13, 2, 4, 2, 4, 0.4, 0.7, left, 1, 0.3, 0.4, 0.6, 0.7, 0.9278927000705153, 1, 99.99905395507812, 2.466661300044507, 6.000000, 35.000000, 3.000000,3.000000,1.000000,6.000000,0.500000,1.000000
29, test, 3, no_probe, 14, 1, 4, 1, 4, 0.3, 0.7, left, 1, 0.3, 0.4, 0.6, 0.7, 0.6215561999706551, 0, , , 6.000000, 35.000000, 1.000000,2.000000,1.000000,6.000000,0.500000,1.000000
29, test, 3, probe, 15, 2, 3, 2, 3, 0.4, 0.6, left, 1, 0.3, 0.4, 0.6, 0.7, 0.6892283000051975, 0, 75.63491821289062, 2.0500003000488505, 6.000000, 35.000000, 2.000000,2.000000,1.000000,6.000000,0.500000,1.000000
29, test, 3, no_probe, 16, 3, 4, 3, 4, 0.6, 0.7, left, 1, 0.3, 0.4, 0.6, 0.7, 1.60483219998423, 1, , , 7.000000, 36.000000, 1.000000,3.000000,1.000000,6.000000,0.500000,1.000000
29, test, 3, no_probe, 17, 2, 3, 3, 2, 0.4, 0.6, right, 2, 0.3, 0.4, 0.6, 0.7, 0.7662103999173269, 0, , , 7.000000, 36.000000, 2.000000,3.000000,1.000000,6.000000,0.500000,1.000000
29, test, 3, probe, 18, 1, 2, 2, 1, 0.3, 0.4, right, 2, 0.3, 0.4, 0.6, 0.7, 0.6116306000621989, 0, 79.03775024414062, 2.383301299996674, 7.000000, 36.000000, 3.000000,3.000000,1.000000,6.000000,0.500000,1.000000
29, test, 3, no_probe, 19, 2, 4, 4, 2, 0.4, 0.7, right, 2, 0.3, 0.4, 0.6, 0.7, 1.9365597000578418, 1, , , 8.000000, 37.000000, 1.000000,3.000000,1.000000,6.000000,0.500000,1.000000
29, test, 3, no_probe, 20, 2, 4, 4, 2, 0.4, 0.7, right, 2, 0.3, 0.4, 0.6, 0.7, 0.41163930005859584, 1, , , 9.000000, 38.000000, 2.000000,3.000000,1.000000,6.000000,0.500000,1.000000
29, test, 3, probe, 21, 1, 4, 1, 4, 0.3, 0.7, left, 1, 0.3, 0.4, 0.6, 0.7, 0.3338863999815658, 1, 99.99960327148438, 2.033335499931127, 10.000000, 39.000000, 3.000000,3.000000,1.000000,6.000000,0.500000,1.000000
29, test, 3, no_probe, 22, 2, 1, 2, 1, 0.4, 0.3, left, 1, 0.3, 0.4, 0.6, 0.7, 0.5342684999341145, 1, , , 11.000000, 40.000000, 1.000000,2.000000,1.000000,6.000000,0.500000,1.000000
29, test, 3, probe, 23, 2, 3, 3, 2, 0.4, 0.6, right, 2, 0.3, 0.4, 0.6, 0.7, 0.3831724999472499, 0, 92.76498413085938, 1.833333299960941, 11.000000, 40.000000, 2.000000,2.000000,1.000000,6.000000,0.500000,1.000000
29, test, 3, no_probe, 24, 2, 4, 2, 4, 0.4, 0.7, left, 1, 0.3, 0.4, 0.6, 0.7, 0.4500323999673128, 0, , , 11.000000, 40.000000, 1.000000,2.000000,1.000000,6.000000,0.500000,1.000000
29, test, 3, probe, 25, 2, 1, 1, 2, 0.4, 0.3, right, 2, 0.3, 0.4, 0.6, 0.7, 0.3053586999885738, 1, 99.99960327148438, 1.9833617999684066, 12.000000, 41.000000, 2.000000,2.000000,1.000000,6.000000,0.500000,1.000000
29, test, 4, no_probe, 1, 3, 4, 4, 3, 0.6, 0.7, right, 2, 0.3, 0.4, 0.6, 0.7, 1.4618479000637308, 0, , , 0.000000, 41.000000, 1.000000,2.000000,1.000000,6.000000,0.500000,1.000000
29, test, 4, probe, 2, 3, 1, 3, 1, 0.6, 0.3, left, 1, 0.3, 0.4, 0.6, 0.7, 0.6769340999890119, 1, 78.67691040039062, 2.7499898000387475, 1.000000, 42.000000, 2.000000,2.000000,1.000000,6.000000,0.500000,1.000000
29, test, 4, no_probe, 3, 1, 4, 4, 1, 0.3, 0.7, right, 2, 0.3, 0.4, 0.6, 0.7, 0.7887865999946371, 1, , , 2.000000, 43.000000, 1.000000,3.000000,1.000000,6.000000,0.500000,1.000000
29, test, 4, no_probe, 4, 1, 4, 1, 4, 0.3, 0.7, left, 1, 0.3, 0.4, 0.6, 0.7, 0.5719261999474838, 1, , , 3.000000, 44.000000, 2.000000,3.000000,1.000000,6.000000,0.500000,1.000000
29, test, 4, probe, 5, 3, 4, 3, 4, 0.6, 0.7, left, 1, 0.3, 0.4, 0.6, 0.7, 0.3969486999558285, 1, 99.99966430664062, 1.9333504000678658, 4.000000, 45.000000, 3.000000,3.000000,1.000000,6.000000,0.500000,1.000000
29, test, 4, no_probe, 6, 1, 4, 1, 4, 0.3, 0.7, left, 1, 0.3, 0.4, 0.6, 0.7, 0.4282050000037998, 0, , , 4.000000, 45.000000, 1.000000,3.000000,1.000000,6.000000,0.500000,1.000000
29, test, 4, no_probe, 7, 3, 1, 1, 3, 0.6, 0.3, right, 2, 0.3, 0.4, 0.6, 0.7, 1.3049292999785393, 1, , , 5.000000, 46.000000, 2.000000,3.000000,1.000000,6.000000,0.500000,1.000000
29, test, 4, probe, 8, 2, 4, 2, 4, 0.4, 0.7, left, 1, 0.3, 0.4, 0.6, 0.7, 0.691183999995701, 0, 86.2681884765625, 2.58332249999512, 5.000000, 46.000000, 3.000000,3.000000,1.000000,6.000000,0.500000,1.000000
29, test, 4, no_probe, 9, 3, 1, 3, 1, 0.6, 0.3, left, 1, 0.3, 0.4, 0.6, 0.7, 0.6249162999447435, 0, , , 5.000000, 46.000000, 1.000000,2.000000,1.000000,6.000000,0.500000,1.000000
29, test, 4, probe, 10, 1, 2, 2, 1, 0.3, 0.4, right, 2, 0.3, 0.4, 0.6, 0.7, 0.4772271999390796, 0, 69.87100219726562, 2.1166764999506995, 5.000000, 46.000000, 2.000000,2.000000,1.000000,6.000000,0.500000,1.000000
29, test, 4, no_probe, 11, 1, 4, 1, 4, 0.3, 0.7, left, 1, 0.3, 0.4, 0.6, 0.7, 0.555592600023374, 1, , , 6.000000, 47.000000, 1.000000,3.000000,1.000000,6.000000,0.500000,1.000000
29, test, 4, no_probe, 12, 3, 4, 4, 3, 0.6, 0.7, right, 2, 0.3, 0.4, 0.6, 0.7, 0.5172386000631377, 0, , , 6.000000, 47.000000, 2.000000,3.000000,1.000000,6.000000,0.500000,1.000000
29, test, 4, probe, 13, 3, 4, 3, 4, 0.6, 0.7, left, 1, 0.3, 0.4, 0.6, 0.7, 0.4408466999884695, 0, 68.98968505859375, 1.7166690999874845, 6.000000, 47.000000, 3.000000,3.000000,1.000000,6.000000,0.500000,1.000000
29, test, 4, no_probe, 14, 3, 4, 3, 4, 0.6, 0.7, left, 1, 0.3, 0.4, 0.6, 0.7, 0.6318685000296682, 1, , , 7.000000, 48.000000, 1.000000,3.000000,1.000000,6.000000,0.500000,1.000000
29, test, 4, no_probe, 15, 1, 2, 2, 1, 0.3, 0.4, right, 2, 0.3, 0.4, 0.6, 0.7, 0.5548679999774322, 1, , , 8.000000, 49.000000, 2.000000,3.000000,1.000000,6.000000,0.500000,1.000000
29, test, 4, probe, 16, 3, 1, 3, 1, 0.6, 0.3, left, 1, 0.3, 0.4, 0.6, 0.7, 0.8434877999825403, 1, 98.902099609375, 1.6500239999732003, 9.000000, 50.000000, 3.000000,3.000000,1.000000,6.000000,0.500000,1.000000
29, test, 4, no_probe, 17, 1, 2, 2, 1, 0.3, 0.4, right, 2, 0.3, 0.4, 0.6, 0.7, 0.5878719999454916, 1, , , 10.000000, 51.000000, 1.000000,2.000000,1.000000,6.000000,0.500000,1.000000
29, test, 4, probe, 18, 3, 2, 3, 2, 0.6, 0.4, left, 1, 0.3, 0.4, 0.6, 0.7, 0.3658681999659166, 1, 99.9996337890625, 1.9833164000883698, 11.000000, 52.000000, 2.000000,2.000000,1.000000,6.000000,0.500000,1.000000
29, test, 4, no_probe, 19, 2, 4, 4, 2, 0.4, 0.7, right, 2, 0.3, 0.4, 0.6, 0.7, 0.7908715000376105, 1, , , 12.000000, 53.000000, 1.000000,2.000000,1.000000,6.000000,0.500000,1.000000
29, test, 4, probe, 20, 1, 4, 1, 4, 0.3, 0.7, left, 1, 0.3, 0.4, 0.6, 0.7, 0.7286780999274924, 0, 99.99957275390625, 1.983327200054191, 12.000000, 53.000000, 2.000000,2.000000,1.000000,6.000000,0.500000,1.000000
29, test, 4, no_probe, 21, 3, 4, 4, 3, 0.6, 0.7, right, 2, 0.3, 0.4, 0.6, 0.7, 0.5812017000280321, 1, , , 13.000000, 54.000000, 1.000000,2.000000,1.000000,6.000000,0.500000,1.000000
29, test, 4, probe, 22, 1, 4, 1, 4, 0.3, 0.7, left, 1, 0.3, 0.4, 0.6, 0.7, 0.34386800008360296, 0, 76.11712646484375, 1.36666029994376, 13.000000, 54.000000, 2.000000,2.000000,1.000000,6.000000,0.500000,1.000000
29, test, 4, no_probe, 23, 3, 4, 4, 3, 0.6, 0.7, right, 2, 0.3, 0.4, 0.6, 0.7, 0.499872799962759, 0, , , 13.000000, 54.000000, 1.000000,3.000000,1.000000,6.000000,0.500000,1.000000
29, test, 4, no_probe, 24, 1, 2, 2, 1, 0.3, 0.4, right, 2, 0.3, 0.4, 0.6, 0.7, 0.47720250010024756, 1, , , 14.000000, 55.000000, 2.000000,3.000000,1.000000,6.000000,0.500000,1.000000
29, test, 4, probe, 25, 2, 4, 2, 4, 0.4, 0.7, left, 1, 0.3, 0.4, 0.6, 0.7, 0.51086729997769, 1, 99.99948120117188, 1.9500037000980228, 15.000000, 56.000000, 3.000000,3.000000,1.000000,6.000000,0.500000,1.000000
29, test, 5, no_probe, 1, 4, 2, 4, 2, 0.7, 0.4, left, 1, 0.3, 0.4, 0.6, 0.7, 1.0672754999250174, 1, , , 1.000000, 57.000000, 1.000000,2.000000,1.000000,6.000000,0.500000,1.000000
29, test, 5, probe, 2, 2, 1, 2, 1, 0.4, 0.3, left, 1, 0.3, 0.4, 0.6, 0.7, 0.613597400020808, 0, 99.99905395507812, 2.799988100072369, 1.000000, 57.000000, 2.000000,2.000000,1.000000,6.000000,0.500000,1.000000
29, test, 5, no_probe, 3, 4, 3, 3, 4, 0.7, 0.6, right, 2, 0.3, 0.4, 0.6, 0.7, 0.6135604999726638, 1, , , 2.000000, 58.000000, 1.000000,2.000000,1.000000,6.000000,0.500000,1.000000
29, test, 5, probe, 4, 4, 2, 4, 2, 0.7, 0.4, left, 1, 0.3, 0.4, 0.6, 0.7, 0.33988340001087636, 1, 99.99960327148438, 2.049985299934633, 3.000000, 59.000000, 2.000000,2.000000,1.000000,6.000000,0.500000,1.000000
29, test, 5, no_probe, 5, 2, 1, 2, 1, 0.4, 0.3, left, 1, 0.3, 0.4, 0.6, 0.7, 0.47253000002820045, 0, , , 3.000000, 59.000000, 1.000000,2.000000,1.000000,6.000000,0.500000,1.000000
29, test, 5, probe, 6, 1, 3, 1, 3, 0.3, 0.6, left, 1, 0.3, 0.4, 0.6, 0.7, 0.70718550006859, 0, 81.32928466796875, 1.9000088999746367, 3.000000, 59.000000, 2.000000,2.000000,1.000000,6.000000,0.500000,1.000000
29, test, 5, no_probe, 7, 4, 3, 3, 4, 0.7, 0.6, right, 2, 0.3, 0.4, 0.6, 0.7, 0.3833718999521807, 0, , , 3.000000, 59.000000, 1.000000,2.000000,1.000000,6.000000,0.500000,1.000000
29, test, 5, probe, 8, 3, 1, 1, 3, 0.6, 0.3, right, 2, 0.3, 0.4, 0.6, 0.7, 0.688252400024794, 1, 83.76193237304688, 1.566659800009802, 4.000000, 60.000000, 2.000000,2.000000,1.000000,6.000000,0.500000,1.000000
29, test, 5, no_probe, 9, 3, 1, 1, 3, 0.6, 0.3, right, 2, 0.3, 0.4, 0.6, 0.7, 0.7701613999670371, 0, , , 4.000000, 60.000000, 1.000000,3.000000,1.000000,6.000000,0.500000,1.000000
29, test, 5, no_probe, 10, 1, 2, 2, 1, 0.3, 0.4, right, 2, 0.3, 0.4, 0.6, 0.7, 0.5898600000655279, 0, , , 4.000000, 60.000000, 2.000000,3.000000,1.000000,6.000000,0.500000,1.000000
29, test, 5, probe, 11, 4, 3, 3, 4, 0.7, 0.6, right, 2, 0.3, 0.4, 0.6, 0.7, 0.5318370000459254, 1, 99.99957275390625, 1.90000600006897, 5.000000, 61.000000, 3.000000,3.000000,1.000000,6.000000,0.500000,1.000000
29, test, 5, no_probe, 12, 4, 2, 4, 2, 0.7, 0.4, left, 1, 0.3, 0.4, 0.6, 0.7, 0.7895442999433726, 1, , , 6.000000, 62.000000, 1.000000,2.000000,1.000000,6.000000,0.500000,1.000000
29, test, 5, probe, 13, 2, 1, 1, 2, 0.4, 0.3, right, 2, 0.3, 0.4, 0.6, 0.7, 0.7595385999884456, 0, 99.9996337890625, 1.9499928000150248, 6.000000, 62.000000, 2.000000,2.000000,1.000000,6.000000,0.500000,1.000000
29, test, 5, no_probe, 14, 2, 3, 3, 2, 0.4, 0.6, right, 2, 0.3, 0.4, 0.6, 0.7, 0.7475723000243306, 0, , , 6.000000, 62.000000, 1.000000,3.000000,1.000000,6.000000,0.500000,1.000000
29, test, 5, no_probe, 15, 1, 2, 1, 2, 0.3, 0.4, left, 1, 0.3, 0.4, 0.6, 0.7, 0.4958696999819949, 1, , , 7.000000, 63.000000, 2.000000,3.000000,1.000000,6.000000,0.500000,1.000000
29, test, 5, probe, 16, 4, 3, 4, 3, 0.7, 0.6, left, 1, 0.3, 0.4, 0.6, 0.7, 0.48889349994715303, 1, 99.9996337890625, 1.9833385999081656, 8.000000, 64.000000, 3.000000,3.000000,1.000000,6.000000,0.500000,1.000000
29, test, 5, no_probe, 17, 4, 1, 1, 4, 0.7, 0.3, right, 2, 0.3, 0.4, 0.6, 0.7, 0.7581941999960691, 1, , , 9.000000, 65.000000, 1.000000,2.000000,1.000000,6.000000,0.500000,1.000000
29, test, 5, probe, 18, 1, 3, 1, 3, 0.3, 0.6, left, 1, 0.3, 0.4, 0.6, 0.7, 0.6055310999508947, 1, 99.99972534179688, 1.8166659000562504, 10.000000, 66.000000, 2.000000,2.000000,1.000000,6.000000,0.500000,1.000000
29, test, 5, no_probe, 19, 4, 2, 2, 4, 0.7, 0.4, right, 2, 0.3, 0.4, 0.6, 0.7, 0.548880200018175, 1, , , 11.000000, 67.000000, 1.000000,2.000000,1.000000,6.000000,0.500000,1.000000
29, test, 5, probe, 20, 1, 4, 4, 1, 0.3, 0.7, right, 2, 0.3, 0.4, 0.6, 0.7, 0.40867819997947663, 0, 92.17080688476562, 2.199974499992095, 11.000000, 67.000000, 2.000000,2.000000,1.000000,6.000000,0.500000,1.000000
29, test, 5, no_probe, 21, 4, 1, 4, 1, 0.7, 0.3, left, 1, 0.3, 0.4, 0.6, 0.7, 0.596202600048855, 1, , , 12.000000, 68.000000, 1.000000,3.000000,1.000000,6.000000,0.500000,1.000000
29, test, 5, no_probe, 22, 4, 2, 4, 2, 0.7, 0.4, left, 1, 0.3, 0.4, 0.6, 0.7, 0.4942623999668285, 1, , , 13.000000, 69.000000, 2.000000,3.000000,1.000000,6.000000,0.500000,1.000000
29, test, 5, probe, 23, 3, 2, 3, 2, 0.6, 0.4, left, 1, 0.3, 0.4, 0.6, 0.7, 0.6132070000749081, 1, 99.99960327148438, 1.9667072999291122, 14.000000, 70.000000, 3.000000,3.000000,1.000000,6.000000,0.500000,1.000000
29, test, 5, no_probe, 24, 1, 3, 1, 3, 0.3, 0.6, left, 1, 0.3, 0.4, 0.6, 0.7, 0.5693044998915866, 0, , , 14.000000, 70.000000, 1.000000,3.000000,1.000000,6.000000,0.500000,1.000000
29, test, 5, no_probe, 25, 1, 3, 3, 1, 0.3, 0.6, right, 2, 0.3, 0.4, 0.6, 0.7, 0.5131426999578252, 0, , , 14.000000, 70.000000, 2.000000,3.000000,1.000000,6.000000,0.500000,1.000000
29, test, 6, no_probe, 1, 3, 1, 1, 3, 0.6, 0.3, right, 2, 0.3, 0.4, 0.6, 0.7, 0.797574199968949, 1, , , 1.000000, 71.000000, 1.000000,2.000000,1.000000,6.000000,0.500000,1.000000
29, test, 6, probe, 2, 3, 1, 1, 3, 0.6, 0.3, right, 2, 0.3, 0.4, 0.6, 0.7, 0.4958877000026405, 1, 99.999267578125, 2.36664920009207, 2.000000, 72.000000, 2.000000,2.000000,1.000000,6.000000,0.500000,1.000000
29, test, 6, no_probe, 3, 4, 3, 4, 3, 0.7, 0.6, left, 1, 0.3, 0.4, 0.6, 0.7, 0.6132499999366701, 1, , , 3.000000, 73.000000, 1.000000,2.000000,1.000000,6.000000,0.500000,1.000000
29, test, 6, probe, 4, 2, 1, 2, 1, 0.4, 0.3, left, 1, 0.3, 0.4, 0.6, 0.7, 0.759182000067085, 0, 99.9996337890625, 2.0166909999679774, 3.000000, 73.000000, 2.000000,2.000000,1.000000,6.000000,0.500000,1.000000
29, test, 6, no_probe, 5, 2, 1, 2, 1, 0.4, 0.3, left, 1, 0.3, 0.4, 0.6, 0.7, 0.7475647000828758, 0, , , 3.000000, 73.000000, 1.000000,3.000000,1.000000,6.000000,0.500000,1.000000
29, test, 6, no_probe, 6, 1, 2, 1, 2, 0.3, 0.4, left, 1, 0.3, 0.4, 0.6, 0.7, 0.7749164000852033, 1, , , 4.000000, 74.000000, 2.000000,3.000000,1.000000,6.000000,0.500000,1.000000
29, test, 6, probe, 7, 1, 4, 4, 1, 0.3, 0.7, right, 2, 0.3, 0.4, 0.6, 0.7, 0.40956429997459054, 1, 99.99972534179688, 1.949967100052163, 5.000000, 75.000000, 3.000000,3.000000,1.000000,6.000000,0.500000,1.000000
29, test, 6, no_probe, 8, 1, 4, 4, 1, 0.3, 0.7, right, 2, 0.3, 0.4, 0.6, 0.7, 0.6558966999873519, 0, , , 5.000000, 75.000000, 1.000000,3.000000,1.000000,6.000000,0.500000,1.000000
29, test, 6, no_probe, 9, 4, 1, 4, 1, 0.7, 0.3, left, 1, 0.3, 0.4, 0.6, 0.7, 0.4909590999595821, 1, , , 6.000000, 76.000000, 2.000000,3.000000,1.000000,6.000000,0.500000,1.000000
29, test, 6, probe, 10, 2, 1, 2, 1, 0.4, 0.3, left, 1, 0.3, 0.4, 0.6, 0.7, 0.5538506000302732, 0, 99.99942016601562, 2.4166335000190884, 6.000000, 76.000000, 3.000000,3.000000,1.000000,6.000000,0.500000,1.000000
29, test, 6, no_probe, 11, 1, 2, 1, 2, 0.3, 0.4, left, 1, 0.3, 0.4, 0.6, 0.7, 1.002538300002925, 0, , , 6.000000, 76.000000, 1.000000,3.000000,1.000000,6.000000,0.500000,1.000000
29, test, 6, no_probe, 12, 3, 4, 3, 4, 0.6, 0.7, left, 1, 0.3, 0.4, 0.6, 0.7, 0.6805212999461219, 1, , , 7.000000, 77.000000, 2.000000,3.000000,1.000000,6.000000,0.500000,1.000000
29, test, 6, probe, 13, 3, 1, 1, 3, 0.6, 0.3, right, 2, 0.3, 0.4, 0.6, 0.7, 0.5087707999628037, 0, 86.91207885742188, 1.6333445000927895, 7.000000, 77.000000, 3.000000,3.000000,1.000000,6.000000,0.500000,1.000000
29, test, 6, no_probe, 14, 4, 3, 4, 3, 0.7, 0.6, left, 1, 0.3, 0.4, 0.6, 0.7, 0.8601778999436647, 1, , , 8.000000, 78.000000, 1.000000,2.000000,1.000000,6.000000,0.500000,1.000000
29, test, 6, probe, 15, 1, 2, 2, 1, 0.3, 0.4, right, 2, 0.3, 0.4, 0.6, 0.7, 0.49555549991782755, 1, 99.99969482421875, 1.9166620000032708, 9.000000, 79.000000, 2.000000,2.000000,1.000000,6.000000,0.500000,1.000000
29, test, 6, no_probe, 16, 1, 4, 1, 4, 0.3, 0.7, left, 1, 0.3, 0.4, 0.6, 0.7, 0.8355468999361619, 0, , , 9.000000, 79.000000, 1.000000,2.000000,1.000000,6.000000,0.500000,1.000000
29, test, 6, probe, 17, 4, 3, 3, 4, 0.7, 0.6, right, 2, 0.3, 0.4, 0.6, 0.7, 0.4155208000447601, 1, 99.99966430664062, 1.8833485000068322, 10.000000, 80.000000, 2.000000,2.000000,1.000000,6.000000,0.500000,1.000000
29, test, 6, no_probe, 18, 3, 2, 3, 2, 0.6, 0.4, left, 1, 0.3, 0.4, 0.6, 0.7, 0.771578700048849, 0, , , 10.000000, 80.000000, 1.000000,2.000000,1.000000,6.000000,0.500000,1.000000
29, test, 6, probe, 19, 2, 1, 2, 1, 0.4, 0.3, left, 1, 0.3, 0.4, 0.6, 0.7, 0.705211199936457, 1, 99.9996337890625, 1.8833201000234112, 11.000000, 81.000000, 2.000000,2.000000,1.000000,6.000000,0.500000,1.000000
29, test, 6, no_probe, 20, 4, 2, 4, 2, 0.7, 0.4, left, 1, 0.3, 0.4, 0.6, 0.7, 0.5988470000447705, 1, , , 12.000000, 82.000000, 1.000000,3.000000,1.000000,6.000000,0.500000,1.000000
29, test, 6, no_probe, 21, 4, 3, 3, 4, 0.7, 0.6, right, 2, 0.3, 0.4, 0.6, 0.7, 0.3842138999607414, 0, , , 12.000000, 82.000000, 2.000000,3.000000,1.000000,6.000000,0.500000,1.000000
29, test, 6, probe, 22, 3, 2, 2, 3, 0.6, 0.4, right, 2, 0.3, 0.4, 0.6, 0.7, 0.48648409999441355, 1, 99.99957275390625, 2.0333060000557452, 13.000000, 83.000000, 3.000000,3.000000,1.000000,6.000000,0.500000,1.000000
29, test, 6, no_probe, 23, 3, 1, 3, 1, 0.6, 0.3, left, 1, 0.3, 0.4, 0.6, 0.7, 0.4459280000301078, 1, , , 14.000000, 84.000000, 1.000000,2.000000,1.000000,6.000000,0.500000,1.000000
29, test, 6, probe, 24, 3, 1, 1, 3, 0.6, 0.3, right, 2, 0.3, 0.4, 0.6, 0.7, 0.33281849999912083, 1, 99.9996337890625, 2.2166925000492483, 15.000000, 85.000000, 2.000000,2.000000,1.000000,6.000000,0.500000,1.000000
29, test, 6, no_probe, 25, 1, 4, 1, 4, 0.3, 0.7, left, 1, 0.3, 0.4, 0.6, 0.7, 0.47551790007855743, 0, , , 15.000000, 85.000000, 1.000000,3.000000,1.000000,6.000000,0.500000,1.000000
29, test, 7, no_probe, 1, 4, 1, 4, 1, 0.7, 0.3, left, 1, 0.3, 0.4, 0.6, 0.7, 0.5597911999793723, 1, , , 1.000000, 86.000000, 1.000000,2.000000,1.000000,6.000000,0.500000,1.000000
29, test, 7, probe, 2, 4, 3, 3, 4, 0.7, 0.6, right, 2, 0.3, 0.4, 0.6, 0.7, 0.2549218999920413, 0, 81.35409545898438, 2.0999850999796763, 1.000000, 86.000000, 2.000000,2.000000,1.000000,6.000000,0.500000,1.000000
29, test, 7, no_probe, 3, 4, 1, 1, 4, 0.7, 0.3, right, 2, 0.3, 0.4, 0.6, 0.7, 0.484904499957338, 0, , , 1.000000, 86.000000, 1.000000,2.000000,1.000000,6.000000,0.500000,1.000000
29, test, 7, probe, 4, 3, 2, 3, 2, 0.6, 0.4, left, 1, 0.3, 0.4, 0.6, 0.7, 0.49397359997965395, 0, 80.50241088867188, 1.533311300096102, 1.000000, 86.000000, 2.000000,2.000000,1.000000,6.000000,0.500000,1.000000
29, test, 7, no_probe, 5, 2, 1, 2, 1, 0.4, 0.3, left, 1, 0.3, 0.4, 0.6, 0.7, 0.5451863999478519, 1, , , 2.000000, 87.000000, 1.000000,2.000000,1.000000,6.000000,0.500000,1.000000
29, test, 7, probe, 6, 2, 4, 4, 2, 0.4, 0.7, right, 2, 0.3, 0.4, 0.6, 0.7, 0.39432630001101643, 1, 88.884521484375, 1.6833337999414653, 3.000000, 88.000000, 2.000000,2.000000,1.000000,6.000000,0.500000,1.000000
29, test, 7, no_probe, 7, 4, 1, 4, 1, 0.7, 0.3, left, 1, 0.3, 0.4, 0.6, 0.7, 0.5155327999964356, 0, , , 3.000000, 88.000000, 1.000000,3.000000,1.000000,6.000000,0.500000,1.000000
29, test, 7, no_probe, 8, 1, 4, 4, 1, 0.3, 0.7, right, 2, 0.3, 0.4, 0.6, 0.7, 0.595210799947381, 1, , , 4.000000, 89.000000, 2.000000,3.000000,1.000000,6.000000,0.500000,1.000000
29, test, 7, probe, 9, 1, 3, 3, 1, 0.3, 0.6, right, 2, 0.3, 0.4, 0.6, 0.7, 0.4742238000035286, 0, 80.1383056640625, 1.5500025000656024, 4.000000, 89.000000, 3.000000,3.000000,1.000000,6.000000,0.500000,1.000000
29, test, 7, no_probe, 10, 1, 2, 1, 2, 0.3, 0.4, left, 1, 0.3, 0.4, 0.6, 0.7, 0.48450809996575117, 0, , , 4.000000, 89.000000, 1.000000,3.000000,1.000000,6.000000,0.500000,1.000000
29, test, 7, no_probe, 11, 3, 4, 3, 4, 0.6, 0.7, left, 1, 0.3, 0.4, 0.6, 0.7, 0.6715521999867633, 1, , , 5.000000, 90.000000, 2.000000,3.000000,1.000000,6.000000,0.500000,1.000000
29, test, 7, probe, 12, 3, 2, 2, 3, 0.6, 0.4, right, 2, 0.3, 0.4, 0.6, 0.7, 0.3251860999735072, 0, 82.54656982421875, 2.8000171999447048, 5.000000, 90.000000, 3.000000,3.000000,1.000000,6.000000,0.500000,1.000000
29, test, 7, no_probe, 13, 2, 1, 2, 1, 0.4, 0.3, left, 1, 0.3, 0.4, 0.6, 0.7, 0.4285682999761775, 1, , , 6.000000, 91.000000, 1.000000,2.000000,1.000000,6.000000,0.500000,1.000000
29, test, 7, probe, 14, 2, 3, 2, 3, 0.4, 0.6, left, 1, 0.3, 0.4, 0.6, 0.7, 0.34225089999381453, 0, 84.72467041015625, 1.5833056999836117, 6.000000, 91.000000, 2.000000,2.000000,1.000000,6.000000,0.500000,1.000000
29, test, 7, no_probe, 15, 3, 1, 3, 1, 0.6, 0.3, left, 1, 0.3, 0.4, 0.6, 0.7, 0.44082020001951605, 1, , , 7.000000, 92.000000, 1.000000,2.000000,1.000000,6.000000,0.500000,1.000000
29, test, 7, probe, 16, 3, 4, 3, 4, 0.6, 0.7, left, 1, 0.3, 0.4, 0.6, 0.7, 0.5691615999676287, 0, 78.83038330078125, 1.3833597999764606, 7.000000, 92.000000, 2.000000,2.000000,1.000000,6.000000,0.500000,1.000000
29, test, 7, no_probe, 17, 1, 3, 3, 1, 0.3, 0.6, right, 2, 0.3, 0.4, 0.6, 0.7, 0.7384209000738338, 0, , , 7.000000, 92.000000, 1.000000,2.000000,1.000000,6.000000,0.500000,1.000000
29, test, 7, probe, 18, 1, 2, 1, 2, 0.3, 0.4, left, 1, 0.3, 0.4, 0.6, 0.7, 0.3075005999999121, 0, 76.54275512695312, 2.599995299940929, 7.000000, 92.000000, 2.000000,2.000000,1.000000,6.000000,0.500000,1.000000
29, test, 7, no_probe, 19, 4, 2, 4, 2, 0.7, 0.4, left, 1, 0.3, 0.4, 0.6, 0.7, 0.5155725000659004, 1, , , 8.000000, 93.000000, 1.000000,3.000000,1.000000,6.000000,0.500000,1.000000
29, test, 7, no_probe, 20, 3, 1, 3, 1, 0.6, 0.3, left, 1, 0.3, 0.4, 0.6, 0.7, 0.3122474999399856, 1, , , 9.000000, 94.000000, 2.000000,3.000000,1.000000,6.000000,0.500000,1.000000
29, test, 7, probe, 21, 3, 2, 2, 3, 0.6, 0.4, right, 2, 0.3, 0.4, 0.6, 0.7, 0.32554579991847277, 1, 87.65524291992188, 1.883387100067921, 10.000000, 95.000000, 3.000000,3.000000,1.000000,6.000000,0.500000,1.000000
29, test, 7, no_probe, 22, 2, 1, 2, 1, 0.4, 0.3, left, 1, 0.3, 0.4, 0.6, 0.7, 0.4614562001079321, 0, , , 10.000000, 95.000000, 1.000000,3.000000,1.000000,6.000000,0.500000,1.000000
29, test, 7, no_probe, 23, 2, 4, 2, 4, 0.4, 0.7, left, 1, 0.3, 0.4, 0.6, 0.7, 0.3078736000461504, 0, , , 10.000000, 95.000000, 2.000000,3.000000,1.000000,6.000000,0.500000,1.000000
29, test, 7, probe, 24, 4, 3, 3, 4, 0.7, 0.6, right, 2, 0.3, 0.4, 0.6, 0.7, 0.37835110002197325, 1, 81.025390625, 2.316670799977146, 11.000000, 96.000000, 3.000000,3.000000,1.000000,6.000000,0.500000,1.000000
29, test, 7, no_probe, 25, 4, 3, 4, 3, 0.7, 0.6, left, 1, 0.3, 0.4, 0.6, 0.7, 0.45492249995004386, 1, , , 12.000000, 97.000000, 1.000000,3.000000,1.000000,6.000000,0.500000,1.000000
29, test, 8, no_probe, 1, 1, 2, 1, 2, 0.3, 0.4, left, 1, 0.3, 0.4, 0.6, 0.7, 1.0322272999910638, 1, , , 1.000000, 98.000000, 1.000000,3.000000,1.000000,6.000000,0.500000,1.000000
29, test, 8, no_probe, 2, 1, 4, 4, 1, 0.3, 0.7, right, 2, 0.3, 0.4, 0.6, 0.7, 0.4307833999628201, 1, , , 2.000000, 99.000000, 2.000000,3.000000,1.000000,6.000000,0.500000,1.000000
29, test, 8, probe, 3, 2, 3, 3, 2, 0.4, 0.6, right, 2, 0.3, 0.4, 0.6, 0.7, 0.5471985000185668, 1, 99.9989013671875, 2.5163123999955133, 3.000000, 100.000000, 3.000000,3.000000,1.000000,6.000000,0.500000,1.000000
29, test, 8, no_probe, 4, 2, 4, 2, 4, 0.4, 0.7, left, 1, 0.3, 0.4, 0.6, 0.7, 0.8214495999272913, 1, , , 4.000000, 101.000000, 1.000000,2.000000,1.000000,6.000000,0.500000,1.000000
29, test, 8, probe, 5, 1, 3, 1, 3, 0.3, 0.6, left, 1, 0.3, 0.4, 0.6, 0.7, 0.5251824000151828, 0, 90.1689453125, 2.1666523999301717, 4.000000, 101.000000, 2.000000,2.000000,1.000000,6.000000,0.500000,1.000000
29, test, 8, no_probe, 6, 1, 4, 4, 1, 0.3, 0.7, right, 2, 0.3, 0.4, 0.6, 0.7, 0.6098385999212041, 0, , , 4.000000, 101.000000, 1.000000,2.000000,1.000000,6.000000,0.500000,1.000000
29, test, 8, probe, 7, 2, 3, 2, 3, 0.4, 0.6, left, 1, 0.3, 0.4, 0.6, 0.7, 0.45622429996728897, 0, 82.90573120117188, 1.4500139999436215, 4.000000, 101.000000, 2.000000,2.000000,1.000000,6.000000,0.500000,1.000000
29, test, 8, no_probe, 8, 1, 2, 2, 1, 0.3, 0.4, right, 2, 0.3, 0.4, 0.6, 0.7, 0.6791800999781117, 0, , , 4.000000, 101.000000, 1.000000,2.000000,1.000000,6.000000,0.500000,1.000000
29, test, 8, probe, 9, 2, 4, 4, 2, 0.4, 0.7, right, 2, 0.3, 0.4, 0.6, 0.7, 0.5067903000162914, 0, 93.16030883789062, 1.7833600000012666, 4.000000, 101.000000, 2.000000,2.000000,1.000000,6.000000,0.500000,1.000000
29, test, 8, no_probe, 10, 2, 3, 2, 3, 0.4, 0.6, left, 1, 0.3, 0.4, 0.6, 0.7, 0.45413209998514503, 0, , , 4.000000, 101.000000, 1.000000,2.000000,1.000000,6.000000,0.500000,1.000000
29, test, 8, probe, 11, 3, 1, 1, 3, 0.6, 0.3, right, 2, 0.3, 0.4, 0.6, 0.7, 0.5619077000301331, 1, 94.5196533203125, 2.350032899994403, 5.000000, 102.000000, 2.000000,2.000000,1.000000,6.000000,0.500000,1.000000
29, test, 8, no_probe, 12, 4, 3, 4, 3, 0.7, 0.6, left, 1, 0.3, 0.4, 0.6, 0.7, 0.3658753000199795, 0, , , 5.000000, 102.000000, 1.000000,2.000000,1.000000,6.000000,0.500000,1.000000
29, test, 8, probe, 13, 1, 2, 2, 1, 0.3, 0.4, right, 2, 0.3, 0.4, 0.6, 0.7, 0.3655526000075042, 0, 84.20681762695312, 1.4666513000847772, 5.000000, 102.000000, 2.000000,2.000000,1.000000,6.000000,0.500000,1.000000
29, test, 8, no_probe, 14, 3, 4, 4, 3, 0.6, 0.7, right, 2, 0.3, 0.4, 0.6, 0.7, 0.3952267999993637, 0, , , 5.000000, 102.000000, 1.000000,3.000000,1.000000,6.000000,0.500000,1.000000
29, test, 8, no_probe, 15, 4, 2, 2, 4, 0.7, 0.4, right, 2, 0.3, 0.4, 0.6, 0.7, 0.21322470006998628, 1, , , 6.000000, 103.000000, 2.000000,3.000000,1.000000,6.000000,0.500000,1.000000
29, test, 8, probe, 16, 3, 4, 3, 4, 0.6, 0.7, left, 1, 0.3, 0.4, 0.6, 0.7, 0.20363410003483295, 1, 85.91064453125, 1.7166859999997541, 7.000000, 104.000000, 3.000000,3.000000,1.000000,6.000000,0.500000,1.000000
29, test, 8, no_probe, 17, 3, 2, 3, 2, 0.6, 0.4, left, 1, 0.3, 0.4, 0.6, 0.7, 0.42187550000380725, 1, , , 8.000000, 105.000000, 1.000000,2.000000,1.000000,6.000000,0.500000,1.000000
29, test, 8, probe, 18, 1, 2, 2, 1, 0.3, 0.4, right, 2, 0.3, 0.4, 0.6, 0.7, 0.3554983999347314, 0, 86.49728393554688, 1.4333107999991626, 8.000000, 105.000000, 2.000000,2.000000,1.000000,6.000000,0.500000,1.000000
29, test, 8, no_probe, 19, 4, 2, 2, 4, 0.7, 0.4, right, 2, 0.3, 0.4, 0.6, 0.7, 0.48023109999485314, 0, , , 8.000000, 105.000000, 1.000000,3.000000,1.000000,6.000000,0.500000,1.000000
29, test, 8, no_probe, 20, 1, 2, 2, 1, 0.3, 0.4, right, 2, 0.3, 0.4, 0.6, 0.7, 0.3708581000100821, 0, , , 8.000000, 105.000000, 2.000000,3.000000,1.000000,6.000000,0.500000,1.000000
29, test, 8, probe, 21, 1, 3, 1, 3, 0.3, 0.6, left, 1, 0.3, 0.4, 0.6, 0.7, 0.38152529997751117, 0, 80.94317626953125, 1.3833297999808565, 8.000000, 105.000000, 3.000000,3.000000,1.000000,6.000000,0.500000,1.000000
29, test, 8, no_probe, 22, 2, 4, 4, 2, 0.4, 0.7, right, 2, 0.3, 0.4, 0.6, 0.7, 0.4173270999453962, 1, , , 9.000000, 106.000000, 1.000000,3.000000,1.000000,6.000000,0.500000,1.000000
29, test, 8, no_probe, 23, 4, 3, 4, 3, 0.7, 0.6, left, 1, 0.3, 0.4, 0.6, 0.7, 0.17166479991283268, 0, , , 9.000000, 106.000000, 2.000000,3.000000,1.000000,6.000000,0.500000,1.000000
29, test, 8, probe, 24, 3, 4, 4, 3, 0.6, 0.7, right, 2, 0.3, 0.4, 0.6, 0.7, 0.33187090000137687, 0, 64.94171142578125, 2.416668300051242, 9.000000, 106.000000, 3.000000,3.000000,1.000000,6.000000,0.500000,1.000000
29, test, 8, no_probe, 25, 2, 4, 4, 2, 0.4, 0.7, right, 2, 0.3, 0.4, 0.6, 0.7, 0.43524399993475527, 1, , , 10.000000, 107.000000, 1.000000,2.000000,1.000000,6.000000,0.500000,1.000000
