subject, block_type, block, thought probe, trial, chosen, unchosen, offer_left_image, offer_right_image, exp_value_chosen, exp_value_unchosen, choice_location, choice_key, exp_value1, exp_value2, exp_value3, exp_value4, RT, reward, vas, RT_vas, coins_per_block, coins_per_task, count_to_prob, ntrial_to_prob, ITI_duration,RT_deadline,choice_feedback_duration,outcome_duration
24, test, 1, no_probe, 1, 3, 1, 3, 1, 0.6, 0.3, left, 1, 0.3, 0.4, 0.6, 0.7, 1.5142946999985725, 1, , , 1.000000, 1.000000, 1.000000,3.000000,1.000000,6.000000,0.500000,1.000000
24, test, 1, no_probe, 2, 3, 1, 3, 1, 0.6, 0.3, left, 1, 0.3, 0.4, 0.6, 0.7, 0.7631984000036027, 0, , , 1.000000, 1.000000, 2.000000,3.000000,1.000000,6.000000,0.500000,1.000000
24, test, 1, abort_prob, 3, 1, 2, 2, 1, 0.3, 0.4, right, 2, 0.3, 0.4, 0.6, 0.7, 0.7695501999987755, 0, , , 1.000000, 1.000000, 3.000000,3.000000,1.000000,6.000000,0.500000,1.000000
24, test, 1, no_probe, 4, 2, 4, 4, 2, 0.4, 0.7, right, 2, 0.3, 0.4, 0.6, 0.7, 0.734468199982075, 0, , , 1.000000, 1.000000, 1.000000,2.000000,1.000000,6.000000,0.500000,1.000000
24, test, 1, probe, 5, 3, 2, 2, 3, 0.6, 0.4, right, 2, 0.3, 0.4, 0.6, 0.7, 0.6528984000033233, 1, 74.28421020507812, 2.899953899992397, 2.000000, 2.000000, 2.000000,2.000000,1.000000,6.000000,0.500000,1.000000
24, test, 1, no_probe, 6, 3, 1, 3, 1, 0.6, 0.3, left, 1, 0.3, 0.4, 0.6, 0.7, 0.9328436999931, 1, , , 3.000000, 3.000000, 1.000000,3.000000,1.000000,6.000000,0.500000,1.000000
24, test, 1, no_probe, 1, 2, 1, 2, 1, 0.4, 0.3, left, 1, 0.3, 0.4, 0.6, 0.7, 0.5826694999996107, 0, , , 0.000000, 3.000000, 1.000000,3.000000,1.000000,6.000000,0.500000,1.000000
24, test, 1, no_probe, 2, 1, 4, 1, 4, 0.3, 0.7, left, 1, 0.3, 0.4, 0.6, 0.7, 0.836829099978786, 0, , , 0.000000, 3.000000, 2.000000,3.000000,1.000000,6.000000,0.500000,1.000000
24, test, 1, probe, 3, 1, 2, 1, 2, 0.3, 0.4, left, 1, 0.3, 0.4, 0.6, 0.7, 1.0412126000155695, 0, 88.18411254882812, 2.3495785999984946, 0.000000, 3.000000, 3.000000,3.000000,1.000000,6.000000,0.500000,1.000000
24, test, 1, no_probe, 4, 3, 4, 3, 4, 0.6, 0.7, left, 1, 0.3, 0.4, 0.6, 0.7, 0.7223589000059292, 1, , , 1.000000, 4.000000, 1.000000,2.000000,1.000000,6.000000,0.500000,1.000000
24, test, 1, probe, 5, 3, 1, 1, 3, 0.6, 0.3, right, 2, 0.3, 0.4, 0.6, 0.7, 0.5112226000055671, 1, 82.49502563476562, 1.8833130999992136, 2.000000, 5.000000, 2.000000,2.000000,1.000000,6.000000,0.500000,1.000000
24, test, 1, no_probe, 6, 3, 1, 3, 1, 0.6, 0.3, left, 1, 0.3, 0.4, 0.6, 0.7, 0.7068055999989156, 1, , , 3.000000, 6.000000, 1.000000,3.000000,1.000000,6.000000,0.500000,1.000000
24, test, 1, no_probe, 7, 4, 2, 2, 4, 0.7, 0.4, right, 2, 0.3, 0.4, 0.6, 0.7, 0.676426599995466, 0, , , 3.000000, 6.000000, 2.000000,3.000000,1.000000,6.000000,0.500000,1.000000
24, test, 1, probe, 8, 3, 2, 3, 2, 0.6, 0.4, left, 1, 0.3, 0.4, 0.6, 0.7, 0.5040509999962524, 1, 76.06988525390625, 1.76662639999995, 4.000000, 7.000000, 3.000000,3.000000,1.000000,6.000000,0.500000,1.000000
24, test, 1, no_probe, 9, 4, 1, 4, 1, 0.7, 0.3, left, 1, 0.3, 0.4, 0.6, 0.7, 0.8761030999885406, 1, , , 5.000000, 8.000000, 1.000000,3.000000,1.000000,6.000000,0.500000,1.000000
24, test, 1, no_probe, 10, 3, 1, 3, 1, 0.6, 0.3, left, 1, 0.3, 0.4, 0.6, 0.7, 0.48051150000537746, 0, , , 5.000000, 8.000000, 2.000000,3.000000,1.000000,6.000000,0.500000,1.000000
24, test, 1, probe, 11, 3, 1, 3, 1, 0.6, 0.3, left, 1, 0.3, 0.4, 0.6, 0.7, 0.42156089999480173, 1, 83.46768188476562, 1.6166396999906283, 6.000000, 9.000000, 3.000000,3.000000,1.000000,6.000000,0.500000,1.000000
24, test, 1, no_probe, 12, 3, 1, 3, 1, 0.6, 0.3, left, 1, 0.3, 0.4, 0.6, 0.7, 0.6677554000052623, 1, , , 7.000000, 10.000000, 1.000000,3.000000,1.000000,6.000000,0.500000,1.000000
24, test, 1, no_probe, 13, 2, 4, 2, 4, 0.4, 0.7, left, 1, 0.3, 0.4, 0.6, 0.7, 0.7120575000008103, 0, , , 7.000000, 10.000000, 2.000000,3.000000,1.000000,6.000000,0.500000,1.000000
24, test, 1, probe, 14, 3, 1, 3, 1, 0.6, 0.3, left, 1, 0.3, 0.4, 0.6, 0.7, 0.5551906999899074, 1, 89.25384521484375, 1.733314600016456, 8.000000, 11.000000, 3.000000,3.000000,1.000000,6.000000,0.500000,1.000000
24, test, 1, no_probe, 15, 4, 1, 4, 1, 0.7, 0.3, left, 1, 0.3, 0.4, 0.6, 0.7, 0.8489143000042532, 1, , , 9.000000, 12.000000, 1.000000,2.000000,1.000000,6.000000,0.500000,1.000000
24, test, 1, probe, 16, 3, 2, 3, 2, 0.6, 0.4, left, 1, 0.3, 0.4, 0.6, 0.7, 1.0241400000231806, 1, 89.8759765625, 2.116612999991048, 10.000000, 13.000000, 2.000000,2.000000,1.000000,6.000000,0.500000,1.000000
24, test, 1, no_probe, 17, 3, 2, 3, 2, 0.6, 0.4, left, 1, 0.3, 0.4, 0.6, 0.7, 0.45875039999373257, 1, , , 11.000000, 14.000000, 1.000000,3.000000,1.000000,6.000000,0.500000,1.000000
24, test, 1, no_probe, 18, 3, 2, 3, 2, 0.6, 0.4, left, 1, 0.3, 0.4, 0.6, 0.7, 0.366119999991497, 1, , , 12.000000, 15.000000, 2.000000,3.000000,1.000000,6.000000,0.500000,1.000000
24, test, 1, probe, 19, 3, 2, 3, 2, 0.6, 0.4, left, 1, 0.3, 0.4, 0.6, 0.7, 0.3291978999914136, 0, 90.89498901367188, 2.8999612999905366, 12.000000, 15.000000, 3.000000,3.000000,1.000000,6.000000,0.500000,1.000000
24, test, 1, no_probe, 20, 2, 4, 2, 4, 0.4, 0.7, left, 1, 0.3, 0.4, 0.6, 0.7, 0.7484068000048865, 0, , , 12.000000, 15.000000, 1.000000,2.000000,1.000000,6.000000,0.500000,1.000000
24, test, 1, probe, 21, 3, 1, 3, 1, 0.6, 0.3, left, 1, 0.3, 0.4, 0.6, 0.7, 0.4742473999795038, 1, 76.8343505859375, 3.0333084000158124, 13.000000, 16.000000, 2.000000,2.000000,1.000000,6.000000,0.500000,1.000000
24, test, 1, no_probe, 22, 2, 4, 4, 2, 0.4, 0.7, right, 2, 0.3, 0.4, 0.6, 0.7, 0.5182409999833908, 0, , , 13.000000, 16.000000, 1.000000,3.000000,1.000000,6.000000,0.500000,1.000000
24, test, 1, no_probe, 23, 2, 1, 2, 1, 0.4, 0.3, left, 1, 0.3, 0.4, 0.6, 0.7, 0.7678229000011925, 1, , , 14.000000, 17.000000, 2.000000,3.000000,1.000000,6.000000,0.500000,1.000000
24, test, 1, probe, 24, 4, 1, 4, 1, 0.7, 0.3, left, 1, 0.3, 0.4, 0.6, 0.7, 0.44982900001923554, 1, 85.13128662109375, 2.399978600005852, 15.000000, 18.000000, 3.000000,3.000000,1.000000,6.000000,0.500000,1.000000
24, test, 1, no_probe, 25, 4, 1, 4, 1, 0.7, 0.3, left, 1, 0.3, 0.4, 0.6, 0.7, 0.6292790999868885, 1, , , 16.000000, 19.000000, 1.000000,2.000000,1.000000,6.000000,0.500000,1.000000
24, test, 2, no_probe, 1, 2, 3, 2, 3, 0.4, 0.6, left, 1, 0.3, 0.4, 0.6, 0.7, 0.4222029999946244, 1, , , 1.000000, 20.000000, 1.000000,2.000000,1.000000,6.000000,0.500000,1.000000
24, test, 2, probe, 2, 3, 1, 3, 1, 0.6, 0.3, left, 1, 0.3, 0.4, 0.6, 0.7, 0.858542200003285, 1, 87.1160888671875, 2.0166795999975875, 2.000000, 21.000000, 2.000000,2.000000,1.000000,6.000000,0.500000,1.000000
24, test, 2, no_probe, 3, 2, 1, 2, 1, 0.4, 0.3, left, 1, 0.3, 0.4, 0.6, 0.7, 1.1129641000006814, 0, , , 2.000000, 21.000000, 1.000000,3.000000,1.000000,6.000000,0.500000,1.000000
24, test, 2, no_probe, 4, 1, 4, 4, 1, 0.3, 0.7, right, 2, 0.3, 0.4, 0.6, 0.7, 1.0325932999840006, 0, , , 2.000000, 21.000000, 2.000000,3.000000,1.000000,6.000000,0.500000,1.000000
24, test, 2, probe, 5, 2, 4, 2, 4, 0.4, 0.7, left, 1, 0.3, 0.4, 0.6, 0.7, 0.8286475000204518, 1, 83.20037841796875, 1.7999770999886096, 3.000000, 22.000000, 3.000000,3.000000,1.000000,6.000000,0.500000,1.000000
24, test, 2, no_probe, 6, 1, 3, 3, 1, 0.3, 0.6, right, 2, 0.3, 0.4, 0.6, 0.7, 0.7320827999792527, 0, , , 3.000000, 22.000000, 1.000000,3.000000,1.000000,6.000000,0.500000,1.000000
24, test, 2, no_probe, 7, 3, 1, 3, 1, 0.6, 0.3, left, 1, 0.3, 0.4, 0.6, 0.7, 0.3998812999925576, 0, , , 3.000000, 22.000000, 2.000000,3.000000,1.000000,6.000000,0.500000,1.000000
24, test, 2, probe, 8, 4, 1, 1, 4, 0.7, 0.3, right, 2, 0.3, 0.4, 0.6, 0.7, 0.789505900000222, 0, 79.72821044921875, 2.4166514000098687, 3.000000, 22.000000, 3.000000,3.000000,1.000000,6.000000,0.500000,1.000000
24, test, 2, no_probe, 9, 4, 3, 4, 3, 0.7, 0.6, left, 1, 0.3, 0.4, 0.6, 0.7, 0.3620894000050612, 1, , , 4.000000, 23.000000, 1.000000,2.000000,1.000000,6.000000,0.500000,1.000000
24, test, 2, probe, 10, 3, 2, 2, 3, 0.6, 0.4, right, 2, 0.3, 0.4, 0.6, 0.7, 0.9513080999895465, 0, 79.50021362304688, 1.4666270000161603, 4.000000, 23.000000, 2.000000,2.000000,1.000000,6.000000,0.500000,1.000000
24, test, 2, no_probe, 11, 2, 1, 2, 1, 0.4, 0.3, left, 1, 0.3, 0.4, 0.6, 0.7, 0.43216739999479614, 1, , , 5.000000, 24.000000, 1.000000,3.000000,1.000000,6.000000,0.500000,1.000000
24, test, 2, no_probe, 12, 2, 4, 4, 2, 0.4, 0.7, right, 2, 0.3, 0.4, 0.6, 0.7, 0.5802223999926355, 1, , , 6.000000, 25.000000, 2.000000,3.000000,1.000000,6.000000,0.500000,1.000000
24, test, 2, probe, 13, 3, 4, 4, 3, 0.6, 0.7, right, 2, 0.3, 0.4, 0.6, 0.7, 0.6901579000113998, 0, 74.76022338867188, 1.766627700009849, 6.000000, 25.000000, 3.000000,3.000000,1.000000,6.000000,0.500000,1.000000
24, test, 2, no_probe, 14, 2, 4, 2, 4, 0.4, 0.7, left, 1, 0.3, 0.4, 0.6, 0.7, 0.7277925000234973, 1, , , 7.000000, 26.000000, 1.000000,3.000000,1.000000,6.000000,0.500000,1.000000
24, test, 2, no_probe, 15, 3, 2, 3, 2, 0.6, 0.4, left, 1, 0.3, 0.4, 0.6, 0.7, 0.8592443000234198, 1, , , 8.000000, 27.000000, 2.000000,3.000000,1.000000,6.000000,0.500000,1.000000
24, test, 2, probe, 16, 4, 1, 1, 4, 0.7, 0.3, right, 2, 0.3, 0.4, 0.6, 0.7, 0.8068128999730106, 1, 77.9771728515625, 3.4999355000036303, 9.000000, 28.000000, 3.000000,3.000000,1.000000,6.000000,0.500000,1.000000
24, test, 2, no_probe, 17, 2, 1, 1, 2, 0.4, 0.3, right, 2, 0.3, 0.4, 0.6, 0.7, 0.4026980999915395, 0, , , 9.000000, 28.000000, 1.000000,3.000000,1.000000,6.000000,0.500000,1.000000
24, test, 2, no_probe, 18, 2, 3, 3, 2, 0.4, 0.6, right, 2, 0.3, 0.4, 0.6, 0.7, 0.4523893000150565, 0, , , 9.000000, 28.000000, 2.000000,3.000000,1.000000,6.000000,0.500000,1.000000
24, test, 2, probe, 19, 2, 3, 3, 2, 0.4, 0.6, right, 2, 0.3, 0.4, 0.6, 0.7, 0.3677599999937229, 1, 83.395263671875, 1.8833450000092853, 10.000000, 29.000000, 3.000000,3.000000,1.000000,6.000000,0.500000,1.000000
24, test, 2, no_probe, 20, 2, 3, 2, 3, 0.4, 0.6, left, 1, 0.3, 0.4, 0.6, 0.7, 0.3976346999988891, 0, , , 10.000000, 29.000000, 1.000000,3.000000,1.000000,6.000000,0.500000,1.000000
24, test, 2, no_probe, 21, 2, 3, 2, 3, 0.4, 0.6, left, 1, 0.3, 0.4, 0.6, 0.7, 0.35516209999332204, 1, , , 11.000000, 30.000000, 2.000000,3.000000,1.000000,6.000000,0.500000,1.000000
24, test, 2, probe, 22, 2, 1, 2, 1, 0.4, 0.3, left, 1, 0.3, 0.4, 0.6, 0.7, 0.5068596999917645, 0, 79.90090942382812, 1.649995299987495, 11.000000, 30.000000, 3.000000,3.000000,1.000000,6.000000,0.500000,1.000000
24, test, 2, no_probe, 23, 3, 4, 4, 3, 0.6, 0.7, right, 2, 0.3, 0.4, 0.6, 0.7, 0.4761814000084996, 1, , , 12.000000, 31.000000, 1.000000,2.000000,1.000000,6.000000,0.500000,1.000000
24, test, 2, probe, 24, 3, 4, 3, 4, 0.6, 0.7, left, 1, 0.3, 0.4, 0.6, 0.7, 0.6159807000076398, 1, 78.33450317382812, 1.7332813999964856, 13.000000, 32.000000, 2.000000,2.000000,1.000000,6.000000,0.500000,1.000000
24, test, 2, no_probe, 25, 2, 4, 2, 4, 0.4, 0.7, left, 1, 0.3, 0.4, 0.6, 0.7, 0.5049900999874808, 0, , , 13.000000, 32.000000, 1.000000,2.000000,1.000000,6.000000,0.500000,1.000000
24, test, 3, no_probe, 1, 1, 3, 1, 3, 0.3, 0.6, left, 1, 0.3, 0.4, 0.6, 0.7, 0.6779137999983504, 0, , , 0.000000, 32.000000, 1.000000,2.000000,1.000000,6.000000,0.500000,1.000000
24, test, 3, probe, 2, 1, 2, 1, 2, 0.3, 0.4, left, 1, 0.3, 0.4, 0.6, 0.7, 0.784696199989412, 0, 78.42752075195312, 1.8832534999819472, 0.000000, 32.000000, 2.000000,2.000000,1.000000,6.000000,0.500000,1.000000
24, test, 3, no_probe, 3, 4, 2, 2, 4, 0.7, 0.4, right, 2, 0.3, 0.4, 0.6, 0.7, 0.7533102000015788, 1, , , 1.000000, 33.000000, 1.000000,3.000000,1.000000,6.000000,0.500000,1.000000
24, test, 3, no_probe, 4, 3, 1, 1, 3, 0.6, 0.3, right, 2, 0.3, 0.4, 0.6, 0.7, 0.9975554999837186, 0, , , 1.000000, 33.000000, 2.000000,3.000000,1.000000,6.000000,0.500000,1.000000
24, test, 3, probe, 5, 2, 3, 2, 3, 0.4, 0.6, left, 1, 0.3, 0.4, 0.6, 0.7, 0.8467682999907993, 0, 81.42776489257812, 1.5666096000059042, 1.000000, 33.000000, 3.000000,3.000000,1.000000,6.000000,0.500000,1.000000
24, test, 3, no_probe, 6, 4, 1, 1, 4, 0.7, 0.3, right, 2, 0.3, 0.4, 0.6, 0.7, 0.5150850999925751, 0, , , 1.000000, 33.000000, 1.000000,2.000000,1.000000,6.000000,0.500000,1.000000
24, test, 3, probe, 7, 4, 2, 2, 4, 0.7, 0.4, right, 2, 0.3, 0.4, 0.6, 0.7, 0.987062700005481, 1, 81.528076171875, 1.8832993999822065, 2.000000, 34.000000, 2.000000,2.000000,1.000000,6.000000,0.500000,1.000000
24, test, 3, no_probe, 8, 2, 1, 2, 1, 0.4, 0.3, left, 1, 0.3, 0.4, 0.6, 0.7, 0.8363625000056345, 0, , , 2.000000, 34.000000, 1.000000,3.000000,1.000000,6.000000,0.500000,1.000000
24, test, 3, no_probe, 9, 1, 3, 3, 1, 0.3, 0.6, right, 2, 0.3, 0.4, 0.6, 0.7, 0.5164132000063546, 1, , , 3.000000, 35.000000, 2.000000,3.000000,1.000000,6.000000,0.500000,1.000000
24, test, 3, probe, 10, 1, 2, 1, 2, 0.3, 0.4, left, 1, 0.3, 0.4, 0.6, 0.7, 0.4692051000020001, 0, 81.92800903320312, 1.5333141000010073, 3.000000, 35.000000, 3.000000,3.000000,1.000000,6.000000,0.500000,1.000000
24, test, 3, no_probe, 11, 3, 2, 2, 3, 0.6, 0.4, right, 2, 0.3, 0.4, 0.6, 0.7, 0.6689016000018455, 0, , , 3.000000, 35.000000, 1.000000,3.000000,1.000000,6.000000,0.500000,1.000000
24, test, 3, no_probe, 12, 1, 4, 4, 1, 0.3, 0.7, right, 2, 0.3, 0.4, 0.6, 0.7, 0.8043865000072401, 0, , , 3.000000, 35.000000, 2.000000,3.000000,1.000000,6.000000,0.500000,1.000000
24, test, 3, probe, 13, 2, 4, 4, 2, 0.4, 0.7, right, 2, 0.3, 0.4, 0.6, 0.7, 0.6340744000044651, 1, 71.96755981445312, 1.9666235000186134, 4.000000, 36.000000, 3.000000,3.000000,1.000000,6.000000,0.500000,1.000000
24, test, 3, no_probe, 14, 2, 3, 3, 2, 0.4, 0.6, right, 2, 0.3, 0.4, 0.6, 0.7, 0.5017981000128202, 0, , , 4.000000, 36.000000, 1.000000,3.000000,1.000000,6.000000,0.500000,1.000000
24, test, 3, no_probe, 15, 3, 4, 4, 3, 0.6, 0.7, right, 2, 0.3, 0.4, 0.6, 0.7, 0.7551729999831878, 1, , , 5.000000, 37.000000, 2.000000,3.000000,1.000000,6.000000,0.500000,1.000000
24, test, 3, probe, 16, 2, 4, 4, 2, 0.4, 0.7, right, 2, 0.3, 0.4, 0.6, 0.7, 0.6815397000173107, 0, 75.4405517578125, 1.916637999995146, 5.000000, 37.000000, 3.000000,3.000000,1.000000,6.000000,0.500000,1.000000
24, test, 3, no_probe, 17, 4, 1, 1, 4, 0.7, 0.3, right, 2, 0.3, 0.4, 0.6, 0.7, 0.6533054999890737, 1, , , 6.000000, 38.000000, 1.000000,3.000000,1.000000,6.000000,0.500000,1.000000
24, test, 3, no_probe, 18, 4, 1, 1, 4, 0.7, 0.3, right, 2, 0.3, 0.4, 0.6, 0.7, 0.5901132999861147, 1, , , 7.000000, 39.000000, 2.000000,3.000000,1.000000,6.000000,0.500000,1.000000
24, test, 3, probe, 19, 4, 2, 4, 2, 0.7, 0.4, left, 1, 0.3, 0.4, 0.6, 0.7, 0.7548825000121724, 1, 81.87286376953125, 1.8666450000018813, 8.000000, 40.000000, 3.000000,3.000000,1.000000,6.000000,0.500000,1.000000
24, test, 3, no_probe, 20, 2, 1, 2, 1, 0.4, 0.3, left, 1, 0.3, 0.4, 0.6, 0.7, 0.7784071999776643, 0, , , 8.000000, 40.000000, 1.000000,2.000000,1.000000,6.000000,0.500000,1.000000
24, test, 3, probe, 21, 1, 2, 1, 2, 0.3, 0.4, left, 1, 0.3, 0.4, 0.6, 0.7, 0.7570605000073556, 0, 73.5775146484375, 1.9833383999939542, 8.000000, 40.000000, 2.000000,2.000000,1.000000,6.000000,0.500000,1.000000
24, test, 3, no_probe, 22, 1, 3, 3, 1, 0.3, 0.6, right, 2, 0.3, 0.4, 0.6, 0.7, 0.4835712999920361, 0, , , 8.000000, 40.000000, 1.000000,2.000000,1.000000,6.000000,0.500000,1.000000
24, test, 3, probe, 23, 1, 2, 2, 1, 0.3, 0.4, right, 2, 0.3, 0.4, 0.6, 0.7, 0.5256596999824978, 0, 65.91970825195312, 1.6499537999916356, 8.000000, 40.000000, 2.000000,2.000000,1.000000,6.000000,0.500000,1.000000
24, test, 3, no_probe, 24, 4, 2, 2, 4, 0.7, 0.4, right, 2, 0.3, 0.4, 0.6, 0.7, 1.046132999996189, 1, , , 9.000000, 41.000000, 1.000000,2.000000,1.000000,6.000000,0.500000,1.000000
24, test, 3, probe, 25, 4, 1, 4, 1, 0.7, 0.3, left, 1, 0.3, 0.4, 0.6, 0.7, 0.7271753000095487, 0, 73.35256958007812, 1.9665974999952596, 9.000000, 41.000000, 2.000000,2.000000,1.000000,6.000000,0.500000,1.000000
24, test, 4, no_probe, 1, 2, 4, 4, 2, 0.4, 0.7, right, 2, 0.3, 0.4, 0.6, 0.7, 1.3079596000025049, 0, , , 0.000000, 41.000000, 1.000000,2.000000,1.000000,6.000000,0.500000,1.000000
24, test, 4, probe, 2, 4, 2, 2, 4, 0.7, 0.4, right, 2, 0.3, 0.4, 0.6, 0.7, 1.2728581999836024, 1, 83.6361083984375, 2.033328800025629, 1.000000, 42.000000, 2.000000,2.000000,1.000000,6.000000,0.500000,1.000000
24, test, 4, no_probe, 3, 4, 1, 4, 1, 0.7, 0.3, left, 1, 0.3, 0.4, 0.6, 0.7, 1.3360331000003498, 0, , , 1.000000, 42.000000, 1.000000,3.000000,1.000000,6.000000,0.500000,1.000000
24, test, 4, no_probe, 4, 1, 4, 4, 1, 0.3, 0.7, right, 2, 0.3, 0.4, 0.6, 0.7, 0.6525665999797639, 0, , , 1.000000, 42.000000, 2.000000,3.000000,1.000000,6.000000,0.500000,1.000000
24, test, 4, probe, 5, 1, 3, 1, 3, 0.3, 0.6, left, 1, 0.3, 0.4, 0.6, 0.7, 0.8767603999876883, 0, 73.42251586914062, 1.7166359999973793, 1.000000, 42.000000, 3.000000,3.000000,1.000000,6.000000,0.500000,1.000000
24, test, 4, no_probe, 6, 3, 1, 1, 3, 0.6, 0.3, right, 2, 0.3, 0.4, 0.6, 0.7, 0.45746710000094026, 1, , , 2.000000, 43.000000, 1.000000,2.000000,1.000000,6.000000,0.500000,1.000000
24, test, 4, probe, 7, 3, 1, 1, 3, 0.6, 0.3, right, 2, 0.3, 0.4, 0.6, 0.7, 0.8995107999944594, 0, 77.57342529296875, 1.3333171999838669, 2.000000, 43.000000, 2.000000,2.000000,1.000000,6.000000,0.500000,1.000000
24, test, 4, no_probe, 8, 4, 1, 4, 1, 0.7, 0.3, left, 1, 0.3, 0.4, 0.6, 0.7, 0.9678088999935426, 0, , , 2.000000, 43.000000, 1.000000,2.000000,1.000000,6.000000,0.500000,1.000000
24, test, 4, probe, 9, 1, 3, 3, 1, 0.3, 0.6, right, 2, 0.3, 0.4, 0.6, 0.7, 0.753034099994693, 1, 79.90182495117188, 2.183315500005847, 3.000000, 44.000000, 2.000000,2.000000,1.000000,6.000000,0.500000,1.000000
24, test, 4, no_probe, 10, 3, 1, 1, 3, 0.6, 0.3, right, 2, 0.3, 0.4, 0.6, 0.7, 0.595629600022221, 1, , , 4.000000, 45.000000, 1.000000,2.000000,1.000000,6.000000,0.500000,1.000000
24, test, 4, probe, 11, 3, 2, 2, 3, 0.6, 0.4, right, 2, 0.3, 0.4, 0.6, 0.7, 1.0259258000005502, 1, 74.15048217773438, 1.4999729000264779, 5.000000, 46.000000, 2.000000,2.000000,1.000000,6.000000,0.500000,1.000000
24, test, 4, no_probe, 12, 1, 2, 2, 1, 0.3, 0.4, right, 2, 0.3, 0.4, 0.6, 0.7, 0.9455555999884382, 1, , , 6.000000, 47.000000, 1.000000,3.000000,1.000000,6.000000,0.500000,1.000000
24, test, 4, no_probe, 13, 2, 1, 2, 1, 0.4, 0.3, left, 1, 0.3, 0.4, 0.6, 0.7, 0.9920060000149533, 1, , , 7.000000, 48.000000, 2.000000,3.000000,1.000000,6.000000,0.500000,1.000000
24, test, 4, probe, 14, 4, 2, 2, 4, 0.7, 0.4, right, 2, 0.3, 0.4, 0.6, 0.7, 0.68344639998395, 1, 83.57049560546875, 2.3500264000031166, 8.000000, 49.000000, 3.000000,3.000000,1.000000,6.000000,0.500000,1.000000
24, test, 4, no_probe, 15, 2, 1, 1, 2, 0.4, 0.3, right, 2, 0.3, 0.4, 0.6, 0.7, 0.4965717000013683, 0, , , 8.000000, 49.000000, 1.000000,2.000000,1.000000,6.000000,0.500000,1.000000
24, test, 4, probe, 16, 1, 4, 1, 4, 0.3, 0.7, left, 1, 0.3, 0.4, 0.6, 0.7, 0.7712079999910202, 1, 78.42575073242188, 1.4166673000145238, 9.000000, 50.000000, 2.000000,2.000000,1.000000,6.000000,0.500000,1.000000
24, test, 4, no_probe, 17, 3, 4, 3, 4, 0.6, 0.7, left, 1, 0.3, 0.4, 0.6, 0.7, 0.3282995000190567, 0, , , 9.000000, 50.000000, 1.000000,3.000000,1.000000,6.000000,0.500000,1.000000
24, test, 4, no_probe, 18, 1, 2, 1, 2, 0.3, 0.4, left, 1, 0.3, 0.4, 0.6, 0.7, 0.9830146000022069, 1, , , 10.000000, 51.000000, 2.000000,3.000000,1.000000,6.000000,0.500000,1.000000
24, test, 4, probe, 19, 1, 3, 1, 3, 0.3, 0.6, left, 1, 0.3, 0.4, 0.6, 0.7, 0.7814829999988433, 0, 72.84249877929688, 1.4666141000052448, 10.000000, 51.000000, 3.000000,3.000000,1.000000,6.000000,0.500000,1.000000
24, test, 4, no_probe, 20, 1, 2, 2, 1, 0.3, 0.4, right, 2, 0.3, 0.4, 0.6, 0.7, 1.0191611000045668, 0, , , 10.000000, 51.000000, 1.000000,2.000000,1.000000,6.000000,0.500000,1.000000
24, test, 4, probe, 21, 3, 4, 3, 4, 0.6, 0.7, left, 1, 0.3, 0.4, 0.6, 0.7, 0.7725893999740947, 1, 76.37362670898438, 1.516618199995719, 11.000000, 52.000000, 2.000000,2.000000,1.000000,6.000000,0.500000,1.000000
24, test, 4, no_probe, 22, 3, 2, 3, 2, 0.6, 0.4, left, 1, 0.3, 0.4, 0.6, 0.7, 0.49332479998702183, 1, , , 12.000000, 53.000000, 1.000000,3.000000,1.000000,6.000000,0.500000,1.000000
24, test, 4, no_probe, 23, 3, 2, 3, 2, 0.6, 0.4, left, 1, 0.3, 0.4, 0.6, 0.7, 0.3664707000134513, 0, , , 12.000000, 53.000000, 2.000000,3.000000,1.000000,6.000000,0.500000,1.000000
24, test, 4, probe, 24, 1, 4, 1, 4, 0.3, 0.7, left, 1, 0.3, 0.4, 0.6, 0.7, 0.5856155999936163, 0, 74.6905517578125, 1.1999752999981865, 12.000000, 53.000000, 3.000000,3.000000,1.000000,6.000000,0.500000,1.000000
24, test, 4, no_probe, 25, 3, 4, 4, 3, 0.6, 0.7, right, 2, 0.3, 0.4, 0.6, 0.7, 0.5781597000022884, 0, , , 12.000000, 53.000000, 1.000000,2.000000,1.000000,6.000000,0.500000,1.000000
24, test, 5, no_probe, 1, 1, 4, 1, 4, 0.3, 0.7, left, 1, 0.3, 0.4, 0.6, 0.7, 0.6368307999800891, 0, , , 0.000000, 53.000000, 1.000000,2.000000,1.000000,6.000000,0.500000,1.000000
24, test, 5, probe, 2, 4, 3, 3, 4, 0.7, 0.6, right, 2, 0.3, 0.4, 0.6, 0.7, 0.7476493999711238, 1, 73.95635986328125, 2.0999672999896575, 1.000000, 54.000000, 2.000000,2.000000,1.000000,6.000000,0.500000,1.000000
24, test, 5, no_probe, 3, 2, 3, 2, 3, 0.4, 0.6, left, 1, 0.3, 0.4, 0.6, 0.7, 0.9945289999886882, 0, , , 1.000000, 54.000000, 1.000000,2.000000,1.000000,6.000000,0.500000,1.000000
24, test, 5, probe, 4, 4, 2, 2, 4, 0.7, 0.4, right, 2, 0.3, 0.4, 0.6, 0.7, 0.4987962000013795, 1, 85.74252319335938, 1.633338299987372, 2.000000, 55.000000, 2.000000,2.000000,1.000000,6.000000,0.500000,1.000000
24, test, 5, no_probe, 5, 4, 3, 4, 3, 0.7, 0.6, left, 1, 0.3, 0.4, 0.6, 0.7, 0.41866709999158047, 0, , , 2.000000, 55.000000, 1.000000,3.000000,1.000000,6.000000,0.500000,1.000000
24, test, 5, no_probe, 6, 4, 1, 4, 1, 0.7, 0.3, left, 1, 0.3, 0.4, 0.6, 0.7, 0.4233174999826588, 1, , , 3.000000, 56.000000, 2.000000,3.000000,1.000000,6.000000,0.500000,1.000000
24, test, 5, probe, 7, 4, 2, 4, 2, 0.7, 0.4, left, 1, 0.3, 0.4, 0.6, 0.7, 0.5355485999898519, 0, 83.78518676757812, 2.8332625000039116, 3.000000, 56.000000, 3.000000,3.000000,1.000000,6.000000,0.500000,1.000000
24, test, 5, no_probe, 8, 2, 3, 3, 2, 0.4, 0.6, right, 2, 0.3, 0.4, 0.6, 0.7, 1.0164932000043336, 0, , , 3.000000, 56.000000, 1.000000,2.000000,1.000000,6.000000,0.500000,1.000000
24, test, 5, probe, 9, 3, 1, 1, 3, 0.6, 0.3, right, 2, 0.3, 0.4, 0.6, 0.7, 0.9747554999776185, 0, 76.24493408203125, 1.5500521999783814, 3.000000, 56.000000, 2.000000,2.000000,1.000000,6.000000,0.500000,1.000000
24, test, 5, no_probe, 10, 4, 1, 1, 4, 0.7, 0.3, right, 2, 0.3, 0.4, 0.6, 0.7, 0.6335543000022881, 0, , , 3.000000, 56.000000, 1.000000,3.000000,1.000000,6.000000,0.500000,1.000000
24, test, 5, no_probe, 11, 2, 1, 2, 1, 0.4, 0.3, left, 1, 0.3, 0.4, 0.6, 0.7, 0.9217611000058241, 0, , , 3.000000, 56.000000, 2.000000,3.000000,1.000000,6.000000,0.500000,1.000000
24, test, 5, probe, 12, 4, 3, 4, 3, 0.7, 0.6, left, 1, 0.3, 0.4, 0.6, 0.7, 0.6734669000143185, 1, 82.67221069335938, 3.7998062999977265, 4.000000, 57.000000, 3.000000,3.000000,1.000000,6.000000,0.500000,1.000000
24, test, 5, no_probe, 13, 1, 3, 1, 3, 0.3, 0.6, left, 1, 0.3, 0.4, 0.6, 0.7, 0.778722299990477, 0, , , 4.000000, 57.000000, 1.000000,2.000000,1.000000,6.000000,0.500000,1.000000
24, test, 5, probe, 14, 2, 1, 1, 2, 0.4, 0.3, right, 2, 0.3, 0.4, 0.6, 0.7, 0.8532956999843009, 0, 74.41168212890625, 1.2666750999924261, 4.000000, 57.000000, 2.000000,2.000000,1.000000,6.000000,0.500000,1.000000
24, test, 5, no_probe, 15, 3, 1, 1, 3, 0.6, 0.3, right, 2, 0.3, 0.4, 0.6, 0.7, 1.116096199984895, 0, , , 4.000000, 57.000000, 1.000000,3.000000,1.000000,6.000000,0.500000,1.000000
24, test, 5, no_probe, 16, 1, 2, 1, 2, 0.3, 0.4, left, 1, 0.3, 0.4, 0.6, 0.7, 0.4809963000006974, 0, , , 4.000000, 57.000000, 2.000000,3.000000,1.000000,6.000000,0.500000,1.000000
24, test, 5, probe, 17, 1, 4, 1, 4, 0.3, 0.7, left, 1, 0.3, 0.4, 0.6, 0.7, 0.395156099984888, 1, 77.01361083984375, 1.4999704999790993, 5.000000, 58.000000, 3.000000,3.000000,1.000000,6.000000,0.500000,1.000000
24, test, 5, no_probe, 18, 4, 2, 4, 2, 0.7, 0.4, left, 1, 0.3, 0.4, 0.6, 0.7, 0.6428298999962863, 1, , , 6.000000, 59.000000, 1.000000,3.000000,1.000000,6.000000,0.500000,1.000000
24, test, 5, no_probe, 19, 4, 2, 4, 2, 0.7, 0.4, left, 1, 0.3, 0.4, 0.6, 0.7, 0.5637237000046298, 1, , , 7.000000, 60.000000, 2.000000,3.000000,1.000000,6.000000,0.500000,1.000000
24, test, 5, probe, 20, 1, 2, 1, 2, 0.3, 0.4, left, 1, 0.3, 0.4, 0.6, 0.7, 0.8546489999862388, 0, 77.09124755859375, 1.4166294999886304, 7.000000, 60.000000, 3.000000,3.000000,1.000000,6.000000,0.500000,1.000000
24, test, 5, no_probe, 21, 2, 1, 2, 1, 0.4, 0.3, left, 1, 0.3, 0.4, 0.6, 0.7, 0.8080536000197753, 1, , , 8.000000, 61.000000, 1.000000,2.000000,1.000000,6.000000,0.500000,1.000000
24, test, 5, probe, 22, 4, 3, 3, 4, 0.7, 0.6, right, 2, 0.3, 0.4, 0.6, 0.7, 0.7047015000134706, 1, 77.62017822265625, 1.4499964000133332, 9.000000, 62.000000, 2.000000,2.000000,1.000000,6.000000,0.500000,1.000000
24, test, 5, no_probe, 23, 1, 2, 2, 1, 0.3, 0.4, right, 2, 0.3, 0.4, 0.6, 0.7, 0.695679199998267, 0, , , 9.000000, 62.000000, 1.000000,3.000000,1.000000,6.000000,0.500000,1.000000
24, test, 5, no_probe, 24, 4, 2, 2, 4, 0.7, 0.4, right, 2, 0.3, 0.4, 0.6, 0.7, 0.6774551999988034, 1, , , 10.000000, 63.000000, 2.000000,3.000000,1.000000,6.000000,0.500000,1.000000
24, test, 5, probe, 25, 1, 4, 1, 4, 0.3, 0.7, left, 1, 0.3, 0.4, 0.6, 0.7, 0.8513520999986213, 0, 75.09649658203125, 1.1999723000044469, 10.000000, 63.000000, 3.000000,3.000000,1.000000,6.000000,0.500000,1.000000
24, test, 6, no_probe, 1, 3, 2, 2, 3, 0.6, 0.4, right, 2, 0.3, 0.4, 0.6, 0.7, 0.6485866000002716, 0, , , 0.000000, 63.000000, 1.000000,2.000000,1.000000,6.000000,0.500000,1.000000
24, test, 6, probe, 2, 2, 1, 1, 2, 0.4, 0.3, right, 2, 0.3, 0.4, 0.6, 0.7, 0.4759646999882534, 1, 49.9930419921875, 3.7999660999921616, 1.000000, 64.000000, 2.000000,2.000000,1.000000,6.000000,0.500000,1.000000
24, test, 6, no_probe, 3, 4, 3, 3, 4, 0.7, 0.6, right, 2, 0.3, 0.4, 0.6, 0.7, 1.0415517999790609, 1, , , 2.000000, 65.000000, 1.000000,2.000000,1.000000,6.000000,0.500000,1.000000
24, test, 6, probe, 4, 4, 3, 3, 4, 0.7, 0.6, right, 2, 0.3, 0.4, 0.6, 0.7, 0.629204299999401, 1, 73.79095458984375, 1.5333230000105686, 3.000000, 66.000000, 2.000000,2.000000,1.000000,6.000000,0.500000,1.000000
24, test, 6, no_probe, 5, 1, 3, 3, 1, 0.3, 0.6, right, 2, 0.3, 0.4, 0.6, 0.7, 1.0867145000083838, 0, , , 3.000000, 66.000000, 1.000000,3.000000,1.000000,6.000000,0.500000,1.000000
24, test, 6, no_probe, 6, 3, 1, 3, 1, 0.6, 0.3, left, 1, 0.3, 0.4, 0.6, 0.7, 0.5968898999853991, 0, , , 3.000000, 66.000000, 2.000000,3.000000,1.000000,6.000000,0.500000,1.000000
24, test, 6, probe, 7, 1, 4, 1, 4, 0.3, 0.7, left, 1, 0.3, 0.4, 0.6, 0.7, 1.081176499981666, 0, 59.3529052734375, 3.716601200023433, 3.000000, 66.000000, 3.000000,3.000000,1.000000,6.000000,0.500000,1.000000
24, test, 6, no_probe, 8, 4, 3, 4, 3, 0.7, 0.6, left, 1, 0.3, 0.4, 0.6, 0.7, 1.0097442000114825, 1, , , 4.000000, 67.000000, 1.000000,2.000000,1.000000,6.000000,0.500000,1.000000
24, test, 6, probe, 9, 2, 3, 2, 3, 0.4, 0.6, left, 1, 0.3, 0.4, 0.6, 0.7, 1.4987127999775112, 0, 70.96881103515625, 1.2999466999899596, 4.000000, 67.000000, 2.000000,2.000000,1.000000,6.000000,0.500000,1.000000
24, test, 6, no_probe, 10, 2, 1, 2, 1, 0.4, 0.3, left, 1, 0.3, 0.4, 0.6, 0.7, 0.6434100999904331, 0, , , 4.000000, 67.000000, 1.000000,3.000000,1.000000,6.000000,0.500000,1.000000
24, test, 6, no_probe, 11, 4, 1, 4, 1, 0.7, 0.3, left, 1, 0.3, 0.4, 0.6, 0.7, 0.6921207999985199, 1, , , 5.000000, 68.000000, 2.000000,3.000000,1.000000,6.000000,0.500000,1.000000
24, test, 6, probe, 12, 4, 1, 4, 1, 0.7, 0.3, left, 1, 0.3, 0.4, 0.6, 0.7, 0.47702690001460724, 1, 70.64376831054688, 1.7333310000249185, 6.000000, 69.000000, 3.000000,3.000000,1.000000,6.000000,0.500000,1.000000
24, test, 6, no_probe, 13, 2, 3, 2, 3, 0.4, 0.6, left, 1, 0.3, 0.4, 0.6, 0.7, 0.7782890000089537, 1, , , 7.000000, 70.000000, 1.000000,2.000000,1.000000,6.000000,0.500000,1.000000
24, test, 6, probe, 14, 4, 3, 4, 3, 0.7, 0.6, left, 1, 0.3, 0.4, 0.6, 0.7, 0.6397450999938883, 1, 78.17080688476562, 1.3333092000102624, 8.000000, 71.000000, 2.000000,2.000000,1.000000,6.000000,0.500000,1.000000
24, test, 6, no_probe, 15, 2, 3, 3, 2, 0.4, 0.6, right, 2, 0.3, 0.4, 0.6, 0.7, 0.6571199999889359, 0, , , 8.000000, 71.000000, 1.000000,3.000000,1.000000,6.000000,0.500000,1.000000
24, test, 6, no_probe, 16, 2, 1, 1, 2, 0.4, 0.3, right, 2, 0.3, 0.4, 0.6, 0.7, 0.40872120001586154, 1, , , 9.000000, 72.000000, 2.000000,3.000000,1.000000,6.000000,0.500000,1.000000
24, test, 6, probe, 17, 4, 3, 4, 3, 0.7, 0.6, left, 1, 0.3, 0.4, 0.6, 0.7, 0.7619928999920376, 0, 71.07083129882812, 1.166664699994726, 9.000000, 72.000000, 3.000000,3.000000,1.000000,6.000000,0.500000,1.000000
24, test, 6, no_probe, 18, 4, 3, 3, 4, 0.7, 0.6, right, 2, 0.3, 0.4, 0.6, 0.7, 0.5050822000193875, 1, , , 10.000000, 73.000000, 1.000000,3.000000,1.000000,6.000000,0.500000,1.000000
24, test, 6, no_probe, 19, 2, 1, 1, 2, 0.4, 0.3, right, 2, 0.3, 0.4, 0.6, 0.7, 0.5744959999865387, 0, , , 10.000000, 73.000000, 2.000000,3.000000,1.000000,6.000000,0.500000,1.000000
24, test, 6, probe, 20, 3, 1, 1, 3, 0.6, 0.3, right, 2, 0.3, 0.4, 0.6, 0.7, 0.8051532999961637, 0, 67.58169555664062, 1.4499880999792367, 10.000000, 73.000000, 3.000000,3.000000,1.000000,6.000000,0.500000,1.000000
24, test, 6, no_probe, 21, 4, 3, 3, 4, 0.7, 0.6, right, 2, 0.3, 0.4, 0.6, 0.7, 0.658943399990676, 1, , , 11.000000, 74.000000, 1.000000,3.000000,1.000000,6.000000,0.500000,1.000000
24, test, 6, no_probe, 22, 4, 3, 4, 3, 0.7, 0.6, left, 1, 0.3, 0.4, 0.6, 0.7, 0.617198299994925, 1, , , 12.000000, 75.000000, 2.000000,3.000000,1.000000,6.000000,0.500000,1.000000
24, test, 6, probe, 23, 1, 4, 1, 4, 0.3, 0.7, left, 1, 0.3, 0.4, 0.6, 0.7, 0.9864294000144582, 1, 70.35903930664062, 1.4165684999898076, 13.000000, 76.000000, 3.000000,3.000000,1.000000,6.000000,0.500000,1.000000
24, test, 6, no_probe, 24, 1, 4, 1, 4, 0.3, 0.7, left, 1, 0.3, 0.4, 0.6, 0.7, 0.7138940999866463, 0, , , 13.000000, 76.000000, 1.000000,2.000000,1.000000,6.000000,0.500000,1.000000
24, test, 6, probe, 25, 4, 3, 4, 3, 0.7, 0.6, left, 1, 0.3, 0.4, 0.6, 0.7, 0.7142871000105515, 0, 71.44656372070312, 1.2833488000032958, 13.000000, 76.000000, 2.000000,2.000000,1.000000,6.000000,0.500000,1.000000
24, test, 7, no_probe, 1, 4, 1, 4, 1, 0.7, 0.3, left, 1, 0.3, 0.4, 0.6, 0.7, 0.8156797999981791, 1, , , 1.000000, 77.000000, 1.000000,3.000000,1.000000,6.000000,0.500000,1.000000
24, test, 7, no_probe, 2, 1, 2, 1, 2, 0.3, 0.4, left, 1, 0.3, 0.4, 0.6, 0.7, 0.8443917999975383, 0, , , 1.000000, 77.000000, 2.000000,3.000000,1.000000,6.000000,0.500000,1.000000
24, test, 7, probe, 3, 2, 1, 2, 1, 0.4, 0.3, left, 1, 0.3, 0.4, 0.6, 0.7, 0.9281820000032894, 1, 73.30694580078125, 1.8162294999929145, 2.000000, 78.000000, 3.000000,3.000000,1.000000,6.000000,0.500000,1.000000
24, test, 7, no_probe, 4, 4, 1, 1, 4, 0.7, 0.3, right, 2, 0.3, 0.4, 0.6, 0.7, 0.8130997999978717, 1, , , 3.000000, 79.000000, 1.000000,3.000000,1.000000,6.000000,0.500000,1.000000
24, test, 7, no_probe, 5, 4, 3, 4, 3, 0.7, 0.6, left, 1, 0.3, 0.4, 0.6, 0.7, 0.7304903000185732, 1, , , 4.000000, 80.000000, 2.000000,3.000000,1.000000,6.000000,0.500000,1.000000
24, test, 7, probe, 6, 4, 3, 3, 4, 0.7, 0.6, right, 2, 0.3, 0.4, 0.6, 0.7, 0.6195602000225335, 1, 76.88998413085938, 1.4833108999882825, 5.000000, 81.000000, 3.000000,3.000000,1.000000,6.000000,0.500000,1.000000
24, test, 7, no_probe, 7, 2, 1, 2, 1, 0.4, 0.3, left, 1, 0.3, 0.4, 0.6, 0.7, 0.9871858000115026, 0, , , 5.000000, 81.000000, 1.000000,3.000000,1.000000,6.000000,0.500000,1.000000
24, test, 7, no_probe, 8, 3, 1, 3, 1, 0.6, 0.3, left, 1, 0.3, 0.4, 0.6, 0.7, 0.7974540000141133, 0, , , 5.000000, 81.000000, 2.000000,3.000000,1.000000,6.000000,0.500000,1.000000
24, test, 7, probe, 9, 4, 3, 4, 3, 0.7, 0.6, left, 1, 0.3, 0.4, 0.6, 0.7, 0.5774085999873932, 1, 85.3262939453125, 1.7999700999935158, 6.000000, 82.000000, 3.000000,3.000000,1.000000,6.000000,0.500000,1.000000
24, test, 7, no_probe, 10, 3, 2, 3, 2, 0.6, 0.4, left, 1, 0.3, 0.4, 0.6, 0.7, 0.8187984999967739, 1, , , 7.000000, 83.000000, 1.000000,3.000000,1.000000,6.000000,0.500000,1.000000
24, test, 7, no_probe, 11, 3, 1, 1, 3, 0.6, 0.3, right, 2, 0.3, 0.4, 0.6, 0.7, 1.0195375999901444, 0, , , 7.000000, 83.000000, 2.000000,3.000000,1.000000,6.000000,0.500000,1.000000
24, test, 7, probe, 12, 2, 1, 1, 2, 0.4, 0.3, right, 2, 0.3, 0.4, 0.6, 0.7, 1.000203400006285, 1, 81.915283203125, 1.4499498000077438, 8.000000, 84.000000, 3.000000,3.000000,1.000000,6.000000,0.500000,1.000000
24, test, 7, no_probe, 13, 3, 2, 3, 2, 0.6, 0.4, left, 1, 0.3, 0.4, 0.6, 0.7, 0.8944208000029903, 1, , , 9.000000, 85.000000, 1.000000,3.000000,1.000000,6.000000,0.500000,1.000000
24, test, 7, no_probe, 14, 4, 3, 4, 3, 0.7, 0.6, left, 1, 0.3, 0.4, 0.6, 0.7, 1.0727814999991097, 0, , , 9.000000, 85.000000, 2.000000,3.000000,1.000000,6.000000,0.500000,1.000000
24, test, 7, probe, 15, 4, 2, 2, 4, 0.7, 0.4, right, 2, 0.3, 0.4, 0.6, 0.7, 0.5183025999867823, 0, 73.2283935546875, 1.3166584999999031, 9.000000, 85.000000, 3.000000,3.000000,1.000000,6.000000,0.500000,1.000000
24, test, 7, no_probe, 16, 4, 3, 3, 4, 0.7, 0.6, right, 2, 0.3, 0.4, 0.6, 0.7, 0.5419328999996651, 1, , , 10.000000, 86.000000, 1.000000,2.000000,1.000000,6.000000,0.500000,1.000000
24, test, 7, probe, 17, 3, 2, 3, 2, 0.6, 0.4, left, 1, 0.3, 0.4, 0.6, 0.7, 0.5815162000071723, 1, 88.8302001953125, 2.2999258000054397, 11.000000, 87.000000, 2.000000,2.000000,1.000000,6.000000,0.500000,1.000000
24, test, 7, no_probe, 18, 3, 2, 2, 3, 0.6, 0.4, right, 2, 0.3, 0.4, 0.6, 0.7, 0.655560199986212, 0, , , 11.000000, 87.000000, 1.000000,3.000000,1.000000,6.000000,0.500000,1.000000
24, test, 7, no_probe, 19, 3, 2, 2, 3, 0.6, 0.4, right, 2, 0.3, 0.4, 0.6, 0.7, 0.5053789000085089, 1, , , 12.000000, 88.000000, 2.000000,3.000000,1.000000,6.000000,0.500000,1.000000
24, test, 7, probe, 20, 4, 2, 2, 4, 0.7, 0.4, right, 2, 0.3, 0.4, 0.6, 0.7, 0.6186190000153147, 0, 78.31390380859375, 1.5332837000023574, 12.000000, 88.000000, 3.000000,3.000000,1.000000,6.000000,0.500000,1.000000
24, test, 7, no_probe, 21, 3, 1, 1, 3, 0.6, 0.3, right, 2, 0.3, 0.4, 0.6, 0.7, 0.5742956000030972, 1, , , 13.000000, 89.000000, 1.000000,3.000000,1.000000,6.000000,0.500000,1.000000
24, test, 7, no_probe, 22, 3, 1, 1, 3, 0.6, 0.3, right, 2, 0.3, 0.4, 0.6, 0.7, 0.5956320999830496, 1, , , 14.000000, 90.000000, 2.000000,3.000000,1.000000,6.000000,0.500000,1.000000
24, test, 7, probe, 23, 3, 1, 1, 3, 0.6, 0.3, right, 2, 0.3, 0.4, 0.6, 0.7, 0.497236499999417, 1, 81.79718017578125, 1.3833167999982834, 15.000000, 91.000000, 3.000000,3.000000,1.000000,6.000000,0.500000,1.000000
24, test, 7, no_probe, 24, 4, 1, 4, 1, 0.7, 0.3, left, 1, 0.3, 0.4, 0.6, 0.7, 0.786177800007863, 0, , , 15.000000, 91.000000, 1.000000,2.000000,1.000000,6.000000,0.500000,1.000000
24, test, 7, probe, 25, 4, 2, 4, 2, 0.7, 0.4, left, 1, 0.3, 0.4, 0.6, 0.7, 0.6994646999810357, 1, 75.5970458984375, 1.8499702000117395, 16.000000, 92.000000, 2.000000,2.000000,1.000000,6.000000,0.500000,1.000000
24, test, 8, no_probe, 1, 2, 4, 2, 4, 0.4, 0.7, left, 1, 0.3, 0.4, 0.6, 0.7, 0.4496316000004299, 0, , , 0.000000, 92.000000, 1.000000,2.000000,1.000000,6.000000,0.500000,1.000000
24, test, 8, probe, 2, 4, 3, 4, 3, 0.7, 0.6, left, 1, 0.3, 0.4, 0.6, 0.7, 0.5808132999809459, 1, 73.57339477539062, 1.2499744999804534, 1.000000, 93.000000, 2.000000,2.000000,1.000000,6.000000,0.500000,1.000000
24, test, 8, no_probe, 3, 4, 2, 4, 2, 0.7, 0.4, left, 1, 0.3, 0.4, 0.6, 0.7, 0.4917378000100143, 1, , , 2.000000, 94.000000, 1.000000,2.000000,1.000000,6.000000,0.500000,1.000000
24, test, 8, probe, 4, 1, 2, 1, 2, 0.3, 0.4, left, 1, 0.3, 0.4, 0.6, 0.7, 0.9195072000147775, 0, 77.73757934570312, 1.2499635000131093, 2.000000, 94.000000, 2.000000,2.000000,1.000000,6.000000,0.500000,1.000000
24, test, 8, no_probe, 5, 3, 1, 1, 3, 0.6, 0.3, right, 2, 0.3, 0.4, 0.6, 0.7, 0.791276799980551, 1, , , 3.000000, 95.000000, 1.000000,3.000000,1.000000,6.000000,0.500000,1.000000
24, test, 8, no_probe, 6, 3, 2, 2, 3, 0.6, 0.4, right, 2, 0.3, 0.4, 0.6, 0.7, 0.8134372000058647, 0, , , 3.000000, 95.000000, 2.000000,3.000000,1.000000,6.000000,0.500000,1.000000
24, test, 8, probe, 7, 1, 2, 2, 1, 0.3, 0.4, right, 2, 0.3, 0.4, 0.6, 0.7, 0.8936439999961294, 0, 73.07583618164062, 1.3666530000045896, 3.000000, 95.000000, 3.000000,3.000000,1.000000,6.000000,0.500000,1.000000
24, test, 8, no_probe, 8, 4, 3, 3, 4, 0.7, 0.6, right, 2, 0.3, 0.4, 0.6, 0.7, 0.44060129998251796, 1, , , 4.000000, 96.000000, 1.000000,3.000000,1.000000,6.000000,0.500000,1.000000
24, test, 8, no_probe, 9, 1, 2, 1, 2, 0.3, 0.4, left, 1, 0.3, 0.4, 0.6, 0.7, 0.8520538999873679, 0, , , 4.000000, 96.000000, 2.000000,3.000000,1.000000,6.000000,0.500000,1.000000
24, test, 8, probe, 10, 4, 3, 4, 3, 0.7, 0.6, left, 1, 0.3, 0.4, 0.6, 0.7, 0.7488441999885254, 1, 81.41580200195312, 1.5165977000142448, 5.000000, 97.000000, 3.000000,3.000000,1.000000,6.000000,0.500000,1.000000
24, test, 8, no_probe, 11, 4, 3, 3, 4, 0.7, 0.6, right, 2, 0.3, 0.4, 0.6, 0.7, 0.681963100010762, 0, , , 5.000000, 97.000000, 1.000000,2.000000,1.000000,6.000000,0.500000,1.000000
24, test, 8, probe, 12, 4, 3, 4, 3, 0.7, 0.6, left, 1, 0.3, 0.4, 0.6, 0.7, 0.5325063000200316, 1, 80.08132934570312, 1.4833019000070635, 6.000000, 98.000000, 2.000000,2.000000,1.000000,6.000000,0.500000,1.000000
24, test, 8, no_probe, 13, 3, 1, 1, 3, 0.6, 0.3, right, 2, 0.3, 0.4, 0.6, 0.7, 1.2396810999780428, 0, , , 6.000000, 98.000000, 1.000000,2.000000,1.000000,6.000000,0.500000,1.000000
24, test, 8, probe, 14, 4, 3, 3, 4, 0.7, 0.6, right, 2, 0.3, 0.4, 0.6, 0.7, 0.963495799980592, 0, 78.6820068359375, 1.3499723999993876, 6.000000, 98.000000, 2.000000,2.000000,1.000000,6.000000,0.500000,1.000000
24, test, 8, no_probe, 15, 4, 2, 2, 4, 0.7, 0.4, right, 2, 0.3, 0.4, 0.6, 0.7, 0.621883899992099, 0, , , 6.000000, 98.000000, 1.000000,3.000000,1.000000,6.000000,0.500000,1.000000
24, test, 8, no_probe, 16, 1, 2, 2, 1, 0.3, 0.4, right, 2, 0.3, 0.4, 0.6, 0.7, 0.8433413000020664, 0, , , 6.000000, 98.000000, 2.000000,3.000000,1.000000,6.000000,0.500000,1.000000
24, test, 8, probe, 17, 2, 3, 2, 3, 0.4, 0.6, left, 1, 0.3, 0.4, 0.6, 0.7, 0.5758794999856036, 0, 59.57147216796875, 1.3333314999763388, 6.000000, 98.000000, 3.000000,3.000000,1.000000,6.000000,0.500000,1.000000
24, test, 8, no_probe, 18, 4, 2, 2, 4, 0.7, 0.4, right, 2, 0.3, 0.4, 0.6, 0.7, 0.5115837999910582, 0, , , 6.000000, 98.000000, 1.000000,3.000000,1.000000,6.000000,0.500000,1.000000
24, test, 8, no_probe, 19, 3, 1, 3, 1, 0.6, 0.3, left, 1, 0.3, 0.4, 0.6, 0.7, 1.196179899998242, 0, , , 6.000000, 98.000000, 2.000000,3.000000,1.000000,6.000000,0.500000,1.000000
24, test, 8, probe, 20, 1, 2, 1, 2, 0.3, 0.4, left, 1, 0.3, 0.4, 0.6, 0.7, 0.5764538000221364, 0, 53.752288818359375, 1.4666427999909502, 6.000000, 98.000000, 3.000000,3.000000,1.000000,6.000000,0.500000,1.000000
24, test, 8, no_probe, 21, 2, 4, 4, 2, 0.4, 0.7, right, 2, 0.3, 0.4, 0.6, 0.7, 0.8952272999740671, 1, , , 7.000000, 99.000000, 1.000000,3.000000,1.000000,6.000000,0.500000,1.000000
24, test, 8, no_probe, 22, 2, 3, 2, 3, 0.4, 0.6, left, 1, 0.3, 0.4, 0.6, 0.7, 0.5338609000027645, 0, , , 7.000000, 99.000000, 2.000000,3.000000,1.000000,6.000000,0.500000,1.000000
24, test, 8, probe, 23, 2, 4, 4, 2, 0.4, 0.7, right, 2, 0.3, 0.4, 0.6, 0.7, 0.45787319997907616, 1, 57.253265380859375, 1.2499757999903522, 8.000000, 100.000000, 3.000000,3.000000,1.000000,6.000000,0.500000,1.000000
24, test, 8, no_probe, 24, 2, 1, 1, 2, 0.4, 0.3, right, 2, 0.3, 0.4, 0.6, 0.7, 0.42529479999211617, 0, , , 8.000000, 100.000000, 1.000000,2.000000,1.000000,6.000000,0.500000,1.000000
24, test, 8, probe, 25, 2, 1, 1, 2, 0.4, 0.3, right, 2, 0.3, 0.4, 0.6, 0.7, 0.398886599985417, 0, 58.381134033203125, 1.116651299991645, 8.000000, 100.000000, 2.000000,2.000000,1.000000,6.000000,0.500000,1.000000
