subject, block_type, block, thought probe, trial, chosen, unchosen, offer_left_image, offer_right_image, exp_value_chosen, exp_value_unchosen, choice_location, choice_key, exp_value1, exp_value2, exp_value3, exp_value4, RT, reward, vas, RT_vas, coins_per_block, coins_per_task, count_to_prob, ntrial_to_prob, ITI_duration,RT_deadline,choice_feedback_duration,outcome_duration
33, test, 1, no_probe, 1, 4, 3, 4, 3, 0.7, 0.6, left, 1, 0.3, 0.4, 0.6, 0.7, 2.995612899889238, 1, , , 1.000000, 1.000000, 1.000000,2.000000,1.000000,6.000000,0.500000,1.000000
33, test, 1, probe, 2, 2, 3, 2, 3, 0.4, 0.6, left, 1, 0.3, 0.4, 0.6, 0.7, 1.1132818999467418, 0, 99.99728393554688, 4.90003539994359, 1.000000, 1.000000, 2.000000,2.000000,1.000000,6.000000,0.500000,1.000000
33, test, 1, no_probe, 3, 2, 1, 1, 2, 0.4, 0.3, right, 2, 0.3, 0.4, 0.6, 0.7, 1.428161000018008, 0, , , 1.000000, 1.000000, 1.000000,3.000000,1.000000,6.000000,0.500000,1.000000
33, test, 1, no_probe, 4, 4, 1, 1, 4, 0.7, 0.3, right, 2, 0.3, 0.4, 0.6, 0.7, 2.27382270002272, 1, , , 2.000000, 2.000000, 2.000000,3.000000,1.000000,6.000000,0.500000,1.000000
33, test, 1, probe, 5, 1, 2, 1, 2, 0.3, 0.4, left, 1, 0.3, 0.4, 0.6, 0.7, 1.2965077999979258, 1, 99.9990234375, 2.5999469000380486, 3.000000, 3.000000, 3.000000,3.000000,1.000000,6.000000,0.500000,1.000000
33, test, 1, no_probe, 6, 4, 1, 1, 4, 0.7, 0.3, right, 2, 0.3, 0.4, 0.6, 0.7, 0.8849765000632033, 0, , , 3.000000, 3.000000, 1.000000,2.000000,1.000000,6.000000,0.500000,1.000000
33, test, 1, no_probe, 1, 1, 4, 4, 1, 0.3, 0.7, right, 2, 0.3, 0.4, 0.6, 0.7, 1.255688300007023, 0, , , 0.000000, 3.000000, 1.000000,3.000000,1.000000,6.000000,0.500000,1.000000
33, test, 1, no_probe, 2, 3, 1, 1, 3, 0.6, 0.3, right, 2, 0.3, 0.4, 0.6, 0.7, 1.6709357999498025, 1, , , 1.000000, 4.000000, 2.000000,3.000000,1.000000,6.000000,0.500000,1.000000
33, test, 1, probe, 3, 2, 4, 4, 2, 0.4, 0.7, right, 2, 0.3, 0.4, 0.6, 0.7, 3.2536042999709025, 0, 99.99905395507812, 2.583007900044322, 1.000000, 4.000000, 3.000000,3.000000,1.000000,6.000000,0.500000,1.000000
33, test, 1, no_probe, 4, 4, 1, 1, 4, 0.7, 0.3, right, 2, 0.3, 0.4, 0.6, 0.7, 1.0906959000276402, 1, , , 2.000000, 5.000000, 1.000000,2.000000,1.000000,6.000000,0.500000,1.000000
33, test, 1, probe, 5, 3, 2, 3, 2, 0.6, 0.4, left, 1, 0.3, 0.4, 0.6, 0.7, 1.7485336000099778, 1, 99.99957275390625, 1.5500022999476641, 3.000000, 6.000000, 2.000000,2.000000,1.000000,6.000000,0.500000,1.000000
33, test, 1, no_probe, 6, 2, 4, 4, 2, 0.4, 0.7, right, 2, 0.3, 0.4, 0.6, 0.7, 1.8734844999853522, 0, , , 3.000000, 6.000000, 1.000000,3.000000,1.000000,6.000000,0.500000,1.000000
33, test, 1, no_probe, 7, 3, 2, 3, 2, 0.6, 0.4, left, 1, 0.3, 0.4, 0.6, 0.7, 1.1079101000213996, 0, , , 3.000000, 6.000000, 2.000000,3.000000,1.000000,6.000000,0.500000,1.000000
33, test, 1, probe, 8, 2, 1, 1, 2, 0.4, 0.3, right, 2, 0.3, 0.4, 0.6, 0.7, 0.7925208000233397, 1, 99.99960327148438, 2.033284300006926, 4.000000, 7.000000, 3.000000,3.000000,1.000000,6.000000,0.500000,1.000000
33, test, 1, no_probe, 9, 2, 3, 3, 2, 0.4, 0.6, right, 2, 0.3, 0.4, 0.6, 0.7, 0.9408706999383867, 1, , , 5.000000, 8.000000, 1.000000,2.000000,1.000000,6.000000,0.500000,1.000000
33, test, 1, probe, 10, 2, 3, 3, 2, 0.4, 0.6, right, 2, 0.3, 0.4, 0.6, 0.7, 1.1728717999067158, 0, 99.99850463867188, 2.46661970007699, 5.000000, 8.000000, 2.000000,2.000000,1.000000,6.000000,0.500000,1.000000
33, test, 1, no_probe, 11, 3, 1, 1, 3, 0.6, 0.3, right, 2, 0.3, 0.4, 0.6, 0.7, 0.7832816999871284, 0, , , 5.000000, 8.000000, 1.000000,2.000000,1.000000,6.000000,0.500000,1.000000
33, test, 1, probe, 12, 4, 3, 4, 3, 0.7, 0.6, left, 1, 0.3, 0.4, 0.6, 0.7, 2.3373250000877306, 1, 99.99566650390625, 4.166636700043455, 6.000000, 9.000000, 2.000000,2.000000,1.000000,6.000000,0.500000,1.000000
33, test, 1, no_probe, 13, 1, 4, 1, 4, 0.3, 0.7, left, 1, 0.3, 0.4, 0.6, 0.7, 2.2414671999868006, 1, , , 7.000000, 10.000000, 1.000000,2.000000,1.000000,6.000000,0.500000,1.000000
33, test, 1, probe, 14, 3, 2, 3, 2, 0.6, 0.4, left, 1, 0.3, 0.4, 0.6, 0.7, 1.6812387000536546, 1, 99.99960327148438, 1.683301700046286, 8.000000, 11.000000, 2.000000,2.000000,1.000000,6.000000,0.500000,1.000000
33, test, 1, no_probe, 15, 2, 3, 3, 2, 0.4, 0.6, right, 2, 0.3, 0.4, 0.6, 0.7, 1.5792028000578284, 1, , , 9.000000, 12.000000, 1.000000,3.000000,1.000000,6.000000,0.500000,1.000000
33, test, 1, no_probe, 16, 1, 3, 1, 3, 0.3, 0.6, left, 1, 0.3, 0.4, 0.6, 0.7, 2.1093044000444934, 1, , , 10.000000, 13.000000, 2.000000,3.000000,1.000000,6.000000,0.500000,1.000000
33, test, 1, probe, 17, 2, 1, 2, 1, 0.4, 0.3, left, 1, 0.3, 0.4, 0.6, 0.7, 1.5617890000576153, 1, 99.99972534179688, 1.683299500029534, 11.000000, 14.000000, 3.000000,3.000000,1.000000,6.000000,0.500000,1.000000
33, test, 1, no_probe, 18, 1, 3, 1, 3, 0.3, 0.6, left, 1, 0.3, 0.4, 0.6, 0.7, 1.2338359999703243, 1, , , 12.000000, 15.000000, 1.000000,3.000000,1.000000,6.000000,0.500000,1.000000
33, test, 1, no_probe, 19, 2, 3, 2, 3, 0.4, 0.6, left, 1, 0.3, 0.4, 0.6, 0.7, 1.649348699953407, 0, , , 12.000000, 15.000000, 2.000000,3.000000,1.000000,6.000000,0.500000,1.000000
33, test, 1, probe, 20, 2, 4, 2, 4, 0.4, 0.7, left, 1, 0.3, 0.4, 0.6, 0.7, 0.7479310999624431, 1, 99.99981689453125, 1.8166693999664858, 13.000000, 16.000000, 3.000000,3.000000,1.000000,6.000000,0.500000,1.000000
33, test, 1, no_probe, 21, 2, 4, 2, 4, 0.4, 0.7, left, 1, 0.3, 0.4, 0.6, 0.7, 1.290576500003226, 1, , , 14.000000, 17.000000, 1.000000,3.000000,1.000000,6.000000,0.500000,1.000000
33, test, 1, no_probe, 22, 1, 4, 4, 1, 0.3, 0.7, right, 2, 0.3, 0.4, 0.6, 0.7, 2.0190458999713883, 0, , , 14.000000, 17.000000, 2.000000,3.000000,1.000000,6.000000,0.500000,1.000000
33, test, 1, probe, 23, 1, 4, 4, 1, 0.3, 0.7, right, 2, 0.3, 0.4, 0.6, 0.7, 1.3519534000661224, 0, 99.99920654296875, 2.10001229995396, 14.000000, 17.000000, 3.000000,3.000000,1.000000,6.000000,0.500000,1.000000
33, test, 1, no_probe, 24, 3, 1, 3, 1, 0.6, 0.3, left, 1, 0.3, 0.4, 0.6, 0.7, 1.1947348000248894, 1, , , 15.000000, 18.000000, 1.000000,3.000000,1.000000,6.000000,0.500000,1.000000
33, test, 1, no_probe, 25, 2, 4, 4, 2, 0.4, 0.7, right, 2, 0.3, 0.4, 0.6, 0.7, 2.1517715000081807, 1, , , 16.000000, 19.000000, 2.000000,3.000000,1.000000,6.000000,0.500000,1.000000
33, test, 2, no_probe, 1, 4, 1, 4, 1, 0.7, 0.3, left, 1, 0.3, 0.4, 0.6, 0.7, 4.293444499955513, 0, , , 0.000000, 19.000000, 1.000000,2.000000,1.000000,6.000000,0.500000,1.000000
33, test, 2, probe, 2, 2, 1, 2, 1, 0.4, 0.3, left, 1, 0.3, 0.4, 0.6, 0.7, 2.2064312000293285, 0, 99.99984741210938, 2.533317400026135, 0.000000, 19.000000, 2.000000,2.000000,1.000000,6.000000,0.500000,1.000000
33, test, 2, no_probe, 3, 2, 4, 4, 2, 0.4, 0.7, right, 2, 0.3, 0.4, 0.6, 0.7, 0.8335709000239149, 0, , , 0.000000, 19.000000, 1.000000,2.000000,1.000000,6.000000,0.500000,1.000000
33, test, 2, probe, 4, 3, 2, 2, 3, 0.6, 0.4, right, 2, 0.3, 0.4, 0.6, 0.7, 3.3415780999930575, 1, 99.99978637695312, 1.9666856999974698, 1.000000, 20.000000, 2.000000,2.000000,1.000000,6.000000,0.500000,1.000000
33, test, 2, no_probe, 5, 1, 2, 1, 2, 0.3, 0.4, left, 1, 0.3, 0.4, 0.6, 0.7, 2.1612930999835953, 0, , , 1.000000, 20.000000, 1.000000,3.000000,1.000000,6.000000,0.500000,1.000000
33, test, 2, no_probe, 6, 4, 3, 3, 4, 0.7, 0.6, right, 2, 0.3, 0.4, 0.6, 0.7, 2.940632799989544, 0, , , 1.000000, 20.000000, 2.000000,3.000000,1.000000,6.000000,0.500000,1.000000
33, test, 2, probe, 7, 1, 3, 1, 3, 0.3, 0.6, left, 1, 0.3, 0.4, 0.6, 0.7, 1.5214332999894395, 1, 78.46670532226562, 3.866666000103578, 2.000000, 21.000000, 3.000000,3.000000,1.000000,6.000000,0.500000,1.000000
33, test, 2, no_probe, 8, 4, 3, 4, 3, 0.7, 0.6, left, 1, 0.3, 0.4, 0.6, 0.7, 2.310346700018272, 1, , , 3.000000, 22.000000, 1.000000,2.000000,1.000000,6.000000,0.500000,1.000000
33, test, 2, probe, 9, 4, 1, 1, 4, 0.7, 0.3, right, 2, 0.3, 0.4, 0.6, 0.7, 1.8035246999934316, 1, 99.99978637695312, 1.8833302999846637, 4.000000, 23.000000, 2.000000,2.000000,1.000000,6.000000,0.500000,1.000000
33, test, 2, no_probe, 10, 4, 2, 4, 2, 0.7, 0.4, left, 1, 0.3, 0.4, 0.6, 0.7, 1.8151431999867782, 0, , , 4.000000, 23.000000, 1.000000,3.000000,1.000000,6.000000,0.500000,1.000000
33, test, 2, no_probe, 11, 1, 2, 2, 1, 0.3, 0.4, right, 2, 0.3, 0.4, 0.6, 0.7, 1.3517551000695676, 0, , , 4.000000, 23.000000, 2.000000,3.000000,1.000000,6.000000,0.500000,1.000000
33, test, 2, probe, 12, 2, 1, 2, 1, 0.4, 0.3, left, 1, 0.3, 0.4, 0.6, 0.7, 1.1072928999783471, 0, 66.63955688476562, 2.1333266000729054, 4.000000, 23.000000, 3.000000,3.000000,1.000000,6.000000,0.500000,1.000000
33, test, 2, no_probe, 13, 3, 2, 3, 2, 0.6, 0.4, left, 1, 0.3, 0.4, 0.6, 0.7, 4.267003100016154, 0, , , 4.000000, 23.000000, 1.000000,2.000000,1.000000,6.000000,0.500000,1.000000
33, test, 2, probe, 14, 4, 2, 2, 4, 0.7, 0.4, right, 2, 0.3, 0.4, 0.6, 0.7, 0.8374404000351205, 1, 99.99981689453125, 1.7666355000110343, 5.000000, 24.000000, 2.000000,2.000000,1.000000,6.000000,0.500000,1.000000
33, test, 2, no_probe, 15, 1, 2, 1, 2, 0.3, 0.4, left, 1, 0.3, 0.4, 0.6, 0.7, 1.201526000048034, 0, , , 5.000000, 24.000000, 1.000000,3.000000,1.000000,6.000000,0.500000,1.000000
33, test, 2, no_probe, 16, 4, 3, 3, 4, 0.7, 0.6, right, 2, 0.3, 0.4, 0.6, 0.7, 1.0418392000719905, 1, , , 6.000000, 25.000000, 2.000000,3.000000,1.000000,6.000000,0.500000,1.000000
33, test, 2, probe, 17, 2, 3, 3, 2, 0.4, 0.6, right, 2, 0.3, 0.4, 0.6, 0.7, 2.034836500068195, 1, 99.99981689453125, 1.850015600095503, 7.000000, 26.000000, 3.000000,3.000000,1.000000,6.000000,0.500000,1.000000
33, test, 2, no_probe, 18, 2, 3, 3, 2, 0.4, 0.6, right, 2, 0.3, 0.4, 0.6, 0.7, 2.842478100094013, 0, , , 7.000000, 26.000000, 1.000000,3.000000,1.000000,6.000000,0.500000,1.000000
33, test, 2, no_probe, 19, 1, 3, 3, 1, 0.3, 0.6, right, 2, 0.3, 0.4, 0.6, 0.7, 1.2475039000855759, 0, , , 7.000000, 26.000000, 2.000000,3.000000,1.000000,6.000000,0.500000,1.000000
33, test, 2, probe, 20, 2, 1, 1, 2, 0.4, 0.3, right, 2, 0.3, 0.4, 0.6, 0.7, 2.933841099962592, 0, 74.2547607421875, 1.4999869000166655, 7.000000, 26.000000, 3.000000,3.000000,1.000000,6.000000,0.500000,1.000000
33, test, 2, no_probe, 21, 3, 2, 3, 2, 0.6, 0.4, left, 1, 0.3, 0.4, 0.6, 0.7, 2.1646493000444025, 0, , , 7.000000, 26.000000, 1.000000,2.000000,1.000000,6.000000,0.500000,1.000000
33, test, 2, probe, 22, 4, 1, 4, 1, 0.7, 0.3, left, 1, 0.3, 0.4, 0.6, 0.7, 0.8311917999526486, 1, 99.999755859375, 2.0333250999683514, 8.000000, 27.000000, 2.000000,2.000000,1.000000,6.000000,0.500000,1.000000
33, test, 2, no_probe, 23, 4, 3, 3, 4, 0.7, 0.6, right, 2, 0.3, 0.4, 0.6, 0.7, 0.7533492000075057, 0, , , 8.000000, 27.000000, 1.000000,2.000000,1.000000,6.000000,0.500000,1.000000
33, test, 2, probe, 24, 1, 2, 1, 2, 0.3, 0.4, left, 1, 0.3, 0.4, 0.6, 0.7, 2.1168124000541866, 0, 63.281982421875, 3.8000215999782085, 8.000000, 27.000000, 2.000000,2.000000,1.000000,6.000000,0.500000,1.000000
33, test, 2, no_probe, 25, 1, 3, 3, 1, 0.3, 0.6, right, 2, 0.3, 0.4, 0.6, 0.7, 0.9345024999929592, 1, , , 9.000000, 28.000000, 1.000000,3.000000,1.000000,6.000000,0.500000,1.000000
33, test, 3, no_probe, 1, 3, 2, 2, 3, 0.6, 0.4, right, 2, 0.3, 0.4, 0.6, 0.7, 3.9192168000154197, 1, , , 1.000000, 29.000000, 1.000000,2.000000,1.000000,6.000000,0.500000,1.000000
33, test, 3, probe, 2, 1, 4, 4, 1, 0.3, 0.7, right, 2, 0.3, 0.4, 0.6, 0.7, 3.2878954999614507, 1, 99.99981689453125, 1.900016300030984, 2.000000, 30.000000, 2.000000,2.000000,1.000000,6.000000,0.500000,1.000000
33, test, 3, no_probe, 3, 1, 3, 1, 3, 0.3, 0.6, left, 1, 0.3, 0.4, 0.6, 0.7, 3.915603499975987, 0, , , 2.000000, 30.000000, 1.000000,3.000000,1.000000,6.000000,0.500000,1.000000
33, test, 3, no_probe, 4, 1, 2, 2, 1, 0.3, 0.4, right, 2, 0.3, 0.4, 0.6, 0.7, 3.5204098999965936, 0, , , 2.000000, 30.000000, 2.000000,3.000000,1.000000,6.000000,0.500000,1.000000
33, test, 3, probe, 5, 4, 3, 3, 4, 0.7, 0.6, right, 2, 0.3, 0.4, 0.6, 0.7, 1.2819748000474647, 1, 99.99978637695312, 1.7332917000167072, 3.000000, 31.000000, 3.000000,3.000000,1.000000,6.000000,0.500000,1.000000
33, test, 3, no_probe, 6, 1, 2, 1, 2, 0.3, 0.4, left, 1, 0.3, 0.4, 0.6, 0.7, 1.6923245000652969, 1, , , 4.000000, 32.000000, 1.000000,3.000000,1.000000,6.000000,0.500000,1.000000
33, test, 3, no_probe, 7, 1, 2, 2, 1, 0.3, 0.4, right, 2, 0.3, 0.4, 0.6, 0.7, 1.1873239000560716, 0, , , 4.000000, 32.000000, 2.000000,3.000000,1.000000,6.000000,0.500000,1.000000
33, test, 3, probe, 8, 3, 2, 3, 2, 0.6, 0.4, left, 1, 0.3, 0.4, 0.6, 0.7, 1.1090676999883726, 0, 99.99978637695312, 1.5832936000078917, 4.000000, 32.000000, 3.000000,3.000000,1.000000,6.000000,0.500000,1.000000
33, test, 3, no_probe, 9, 1, 2, 1, 2, 0.3, 0.4, left, 1, 0.3, 0.4, 0.6, 0.7, 1.3659410000545904, 1, , , 5.000000, 33.000000, 1.000000,3.000000,1.000000,6.000000,0.500000,1.000000
33, test, 3, no_probe, 10, 4, 1, 1, 4, 0.7, 0.3, right, 2, 0.3, 0.4, 0.6, 0.7, 1.7517348000546917, 1, , , 6.000000, 34.000000, 2.000000,3.000000,1.000000,6.000000,0.500000,1.000000
33, test, 3, probe, 11, 4, 3, 4, 3, 0.7, 0.6, left, 1, 0.3, 0.4, 0.6, 0.7, 1.519984900020063, 0, 99.99969482421875, 1.8333360999822617, 6.000000, 34.000000, 3.000000,3.000000,1.000000,6.000000,0.500000,1.000000
33, test, 3, no_probe, 12, 2, 1, 2, 1, 0.4, 0.3, left, 1, 0.3, 0.4, 0.6, 0.7, 1.5699681000551209, 1, , , 7.000000, 35.000000, 1.000000,3.000000,1.000000,6.000000,0.500000,1.000000
33, test, 3, no_probe, 13, 4, 3, 4, 3, 0.7, 0.6, left, 1, 0.3, 0.4, 0.6, 0.7, 1.3357067999895662, 1, , , 8.000000, 36.000000, 2.000000,3.000000,1.000000,6.000000,0.500000,1.000000
33, test, 3, probe, 14, 2, 1, 2, 1, 0.4, 0.3, left, 1, 0.3, 0.4, 0.6, 0.7, 1.1797020999947563, 1, 99.99978637695312, 1.633323699934408, 9.000000, 37.000000, 3.000000,3.000000,1.000000,6.000000,0.500000,1.000000
33, test, 3, no_probe, 15, 2, 4, 4, 2, 0.4, 0.7, right, 2, 0.3, 0.4, 0.6, 0.7, 1.0637155000586063, 1, , , 10.000000, 38.000000, 1.000000,2.000000,1.000000,6.000000,0.500000,1.000000
33, test, 3, probe, 16, 1, 2, 1, 2, 0.3, 0.4, left, 1, 0.3, 0.4, 0.6, 0.7, 1.1238040000898764, 0, 49.998565673828125, 0.7833270999835804, 10.000000, 38.000000, 2.000000,2.000000,1.000000,6.000000,0.500000,1.000000
33, test, 3, no_probe, 17, 3, 2, 3, 2, 0.6, 0.4, left, 1, 0.3, 0.4, 0.6, 0.7, 1.742353399982676, 0, , , 10.000000, 38.000000, 1.000000,2.000000,1.000000,6.000000,0.500000,1.000000
33, test, 3, probe, 18, 1, 2, 1, 2, 0.3, 0.4, left, 1, 0.3, 0.4, 0.6, 0.7, 0.9223420999478549, 0, 99.9984130859375, 2.483297000057064, 10.000000, 38.000000, 2.000000,2.000000,1.000000,6.000000,0.500000,1.000000
33, test, 3, no_probe, 19, 3, 4, 3, 4, 0.6, 0.7, left, 1, 0.3, 0.4, 0.6, 0.7, 0.974321800051257, 1, , , 11.000000, 39.000000, 1.000000,3.000000,1.000000,6.000000,0.500000,1.000000
33, test, 3, no_probe, 20, 1, 4, 4, 1, 0.3, 0.7, right, 2, 0.3, 0.4, 0.6, 0.7, 2.7329915000591427, 0, , , 11.000000, 39.000000, 2.000000,3.000000,1.000000,6.000000,0.500000,1.000000
33, test, 3, probe, 21, 1, 2, 1, 2, 0.3, 0.4, left, 1, 0.3, 0.4, 0.6, 0.7, 2.2298380999127403, 1, 99.99972534179688, 1.7333220000145957, 12.000000, 40.000000, 3.000000,3.000000,1.000000,6.000000,0.500000,1.000000
33, test, 3, no_probe, 22, 2, 4, 2, 4, 0.4, 0.7, left, 1, 0.3, 0.4, 0.6, 0.7, 0.8989889000076801, 0, , , 12.000000, 40.000000, 1.000000,3.000000,1.000000,6.000000,0.500000,1.000000
33, test, 3, no_probe, 23, 1, 2, 1, 2, 0.3, 0.4, left, 1, 0.3, 0.4, 0.6, 0.7, 1.4322991999797523, 0, , , 12.000000, 40.000000, 2.000000,3.000000,1.000000,6.000000,0.500000,1.000000
33, test, 3, probe, 24, 1, 4, 4, 1, 0.3, 0.7, right, 2, 0.3, 0.4, 0.6, 0.7, 1.6563424000050873, 1, 99.99966430664062, 1.9333398001035675, 13.000000, 41.000000, 3.000000,3.000000,1.000000,6.000000,0.500000,1.000000
33, test, 3, no_probe, 25, 1, 2, 2, 1, 0.3, 0.4, right, 2, 0.3, 0.4, 0.6, 0.7, 1.0492118000984192, 0, , , 13.000000, 41.000000, 1.000000,3.000000,1.000000,6.000000,0.500000,1.000000
33, test, 4, no_probe, 1, 3, 4, 3, 4, 0.6, 0.7, left, 1, 0.3, 0.4, 0.6, 0.7, 0.9056801999686286, 1, , , 1.000000, 42.000000, 1.000000,3.000000,1.000000,6.000000,0.500000,1.000000
33, test, 4, no_probe, 2, 2, 4, 4, 2, 0.4, 0.7, right, 2, 0.3, 0.4, 0.6, 0.7, 1.2749884000513703, 1, , , 2.000000, 43.000000, 2.000000,3.000000,1.000000,6.000000,0.500000,1.000000
33, test, 4, probe, 3, 3, 4, 3, 4, 0.6, 0.7, left, 1, 0.3, 0.4, 0.6, 0.7, 0.6857053000712767, 0, 99.999755859375, 1.74970080005005, 2.000000, 43.000000, 3.000000,3.000000,1.000000,6.000000,0.500000,1.000000
33, test, 4, no_probe, 4, 2, 4, 4, 2, 0.4, 0.7, right, 2, 0.3, 0.4, 0.6, 0.7, 1.236297000083141, 0, , , 2.000000, 43.000000, 1.000000,2.000000,1.000000,6.000000,0.500000,1.000000
33, test, 4, probe, 5, 4, 1, 1, 4, 0.7, 0.3, right, 2, 0.3, 0.4, 0.6, 0.7, 1.6519759999355301, 1, 99.99972534179688, 1.5833108000224456, 3.000000, 44.000000, 2.000000,2.000000,1.000000,6.000000,0.500000,1.000000
33, test, 4, no_probe, 6, 1, 2, 2, 1, 0.3, 0.4, right, 2, 0.3, 0.4, 0.6, 0.7, 1.0710302999941632, 0, , , 3.000000, 44.000000, 1.000000,2.000000,1.000000,6.000000,0.500000,1.000000
33, test, 4, probe, 7, 3, 2, 2, 3, 0.6, 0.4, right, 2, 0.3, 0.4, 0.6, 0.7, 0.8057377999648452, 1, 99.99960327148438, 3.1167051000520587, 4.000000, 45.000000, 2.000000,2.000000,1.000000,6.000000,0.500000,1.000000
33, test, 4, no_probe, 8, 1, 4, 4, 1, 0.3, 0.7, right, 2, 0.3, 0.4, 0.6, 0.7, 0.9490638999268413, 0, , , 4.000000, 45.000000, 1.000000,2.000000,1.000000,6.000000,0.500000,1.000000
33, test, 4, probe, 9, 2, 3, 3, 2, 0.4, 0.6, right, 2, 0.3, 0.4, 0.6, 0.7, 2.8203585000010207, 1, 99.999755859375, 1.566632300033234, 5.000000, 46.000000, 2.000000,2.000000,1.000000,6.000000,0.500000,1.000000
33, test, 4, no_probe, 10, 3, 2, 2, 3, 0.6, 0.4, right, 2, 0.3, 0.4, 0.6, 0.7, 0.828950299997814, 0, , , 5.000000, 46.000000, 1.000000,2.000000,1.000000,6.000000,0.500000,1.000000
33, test, 4, probe, 11, 3, 2, 2, 3, 0.6, 0.4, right, 2, 0.3, 0.4, 0.6, 0.7, 0.7495223000878468, 0, 99.99981689453125, 2.416595199960284, 5.000000, 46.000000, 2.000000,2.000000,1.000000,6.000000,0.500000,1.000000
33, test, 4, no_probe, 12, 3, 1, 1, 3, 0.6, 0.3, right, 2, 0.3, 0.4, 0.6, 0.7, 0.7158877999754623, 1, , , 6.000000, 47.000000, 1.000000,3.000000,1.000000,6.000000,0.500000,1.000000
33, test, 4, no_probe, 13, 1, 2, 2, 1, 0.3, 0.4, right, 2, 0.3, 0.4, 0.6, 0.7, 2.2752031000563875, 0, , , 6.000000, 47.000000, 2.000000,3.000000,1.000000,6.000000,0.500000,1.000000
33, test, 4, probe, 14, 1, 2, 2, 1, 0.3, 0.4, right, 2, 0.3, 0.4, 0.6, 0.7, 0.7102003000909463, 1, 98.74465942382812, 1.6500444000121206, 7.000000, 48.000000, 3.000000,3.000000,1.000000,6.000000,0.500000,1.000000
33, test, 4, no_probe, 15, 1, 4, 4, 1, 0.3, 0.7, right, 2, 0.3, 0.4, 0.6, 0.7, 0.733375700074248, 1, , , 8.000000, 49.000000, 1.000000,3.000000,1.000000,6.000000,0.500000,1.000000
33, test, 4, no_probe, 16, 3, 4, 4, 3, 0.6, 0.7, right, 2, 0.3, 0.4, 0.6, 0.7, 0.5764411999844015, 0, , , 8.000000, 49.000000, 2.000000,3.000000,1.000000,6.000000,0.500000,1.000000
33, test, 4, probe, 17, 2, 3, 3, 2, 0.4, 0.6, right, 2, 0.3, 0.4, 0.6, 0.7, 2.0280166999436915, 1, 99.99978637695312, 1.5833379999967292, 9.000000, 50.000000, 3.000000,3.000000,1.000000,6.000000,0.500000,1.000000
33, test, 4, no_probe, 18, 3, 2, 2, 3, 0.6, 0.4, right, 2, 0.3, 0.4, 0.6, 0.7, 0.7719992999918759, 0, , , 9.000000, 50.000000, 1.000000,2.000000,1.000000,6.000000,0.500000,1.000000
33, test, 4, probe, 19, 4, 1, 4, 1, 0.7, 0.3, left, 1, 0.3, 0.4, 0.6, 0.7, 1.6176296999910846, 1, 95.87222290039062, 1.6499946999829262, 10.000000, 51.000000, 2.000000,2.000000,1.000000,6.000000,0.500000,1.000000
33, test, 4, no_probe, 20, 4, 2, 2, 4, 0.7, 0.4, right, 2, 0.3, 0.4, 0.6, 0.7, 0.9389817999908701, 1, , , 11.000000, 52.000000, 1.000000,2.000000,1.000000,6.000000,0.500000,1.000000
33, test, 4, probe, 21, 3, 4, 4, 3, 0.6, 0.7, right, 2, 0.3, 0.4, 0.6, 0.7, 0.9716147999279201, 1, 99.99954223632812, 1.6499325999757275, 12.000000, 53.000000, 2.000000,2.000000,1.000000,6.000000,0.500000,1.000000
33, test, 4, no_probe, 22, 1, 2, 2, 1, 0.3, 0.4, right, 2, 0.3, 0.4, 0.6, 0.7, 1.2222155999625102, 0, , , 12.000000, 53.000000, 1.000000,3.000000,1.000000,6.000000,0.500000,1.000000
33, test, 4, no_probe, 23, 4, 2, 2, 4, 0.7, 0.4, right, 2, 0.3, 0.4, 0.6, 0.7, 1.0989704000530764, 1, , , 13.000000, 54.000000, 2.000000,3.000000,1.000000,6.000000,0.500000,1.000000
33, test, 4, probe, 24, 3, 2, 2, 3, 0.6, 0.4, right, 2, 0.3, 0.4, 0.6, 0.7, 0.7597926999442279, 1, 99.99981689453125, 1.9833282999461517, 14.000000, 55.000000, 3.000000,3.000000,1.000000,6.000000,0.500000,1.000000
33, test, 4, no_probe, 25, 3, 1, 1, 3, 0.6, 0.3, right, 2, 0.3, 0.4, 0.6, 0.7, 1.3150061999913305, 1, , , 15.000000, 56.000000, 1.000000,2.000000,1.000000,6.000000,0.500000,1.000000
33, test, 5, no_probe, 1, 3, 4, 3, 4, 0.6, 0.7, left, 1, 0.3, 0.4, 0.6, 0.7, 2.783415799960494, 1, , , 1.000000, 57.000000, 1.000000,2.000000,1.000000,6.000000,0.500000,1.000000
33, test, 5, probe, 2, 1, 3, 1, 3, 0.3, 0.6, left, 1, 0.3, 0.4, 0.6, 0.7, 0.6721998000284657, 0, 99.99472045898438, 4.949967999942601, 1.000000, 57.000000, 2.000000,2.000000,1.000000,6.000000,0.500000,1.000000
33, test, 5, no_probe, 3, 1, 2, 1, 2, 0.3, 0.4, left, 1, 0.3, 0.4, 0.6, 0.7, 1.0316228000447154, 1, , , 2.000000, 58.000000, 1.000000,3.000000,1.000000,6.000000,0.500000,1.000000
33, test, 5, no_probe, 4, 1, 4, 4, 1, 0.3, 0.7, right, 2, 0.3, 0.4, 0.6, 0.7, 0.5995071000652388, 0, , , 2.000000, 58.000000, 2.000000,3.000000,1.000000,6.000000,0.500000,1.000000
33, test, 5, probe, 5, 1, 4, 4, 1, 0.3, 0.7, right, 2, 0.3, 0.4, 0.6, 0.7, 1.0419136000564322, 0, 99.99972534179688, 1.8833190000150353, 2.000000, 58.000000, 3.000000,3.000000,1.000000,6.000000,0.500000,1.000000
33, test, 5, no_probe, 6, 3, 4, 4, 3, 0.6, 0.7, right, 2, 0.3, 0.4, 0.6, 0.7, 0.8003317000111565, 0, , , 2.000000, 58.000000, 1.000000,2.000000,1.000000,6.000000,0.500000,1.000000
33, test, 5, probe, 7, 1, 3, 3, 1, 0.3, 0.6, right, 2, 0.3, 0.4, 0.6, 0.7, 0.6608311000745744, 0, 34.729766845703125, 2.933370599988848, 2.000000, 58.000000, 2.000000,2.000000,1.000000,6.000000,0.500000,1.000000
33, test, 5, no_probe, 8, 3, 2, 2, 3, 0.6, 0.4, right, 2, 0.3, 0.4, 0.6, 0.7, 0.7173186000436544, 1, , , 3.000000, 59.000000, 1.000000,2.000000,1.000000,6.000000,0.500000,1.000000
33, test, 5, probe, 9, 3, 2, 2, 3, 0.6, 0.4, right, 2, 0.3, 0.4, 0.6, 0.7, 1.2621655000839382, 1, 34.37286376953125, 2.0667189999949187, 4.000000, 60.000000, 2.000000,2.000000,1.000000,6.000000,0.500000,1.000000
33, test, 5, no_probe, 10, 1, 4, 1, 4, 0.3, 0.7, left, 1, 0.3, 0.4, 0.6, 0.7, 1.1226743999868631, 1, , , 5.000000, 61.000000, 1.000000,2.000000,1.000000,6.000000,0.500000,1.000000
33, test, 5, probe, 11, 2, 4, 4, 2, 0.4, 0.7, right, 2, 0.3, 0.4, 0.6, 0.7, 0.7781826000427827, 0, 36.758941650390625, 1.0666927000274882, 5.000000, 61.000000, 2.000000,2.000000,1.000000,6.000000,0.500000,1.000000
33, test, 5, no_probe, 12, 3, 2, 2, 3, 0.6, 0.4, right, 2, 0.3, 0.4, 0.6, 0.7, 0.5904276999644935, 0, , , 5.000000, 61.000000, 1.000000,2.000000,1.000000,6.000000,0.500000,1.000000
33, test, 5, probe, 13, 2, 4, 4, 2, 0.4, 0.7, right, 2, 0.3, 0.4, 0.6, 0.7, 0.9907796999905258, 1, 38.34576416015625, 0.9166279999772087, 6.000000, 62.000000, 2.000000,2.000000,1.000000,6.000000,0.500000,1.000000
33, test, 5, no_probe, 14, 1, 2, 2, 1, 0.3, 0.4, right, 2, 0.3, 0.4, 0.6, 0.7, 0.6396321000065655, 0, , , 6.000000, 62.000000, 1.000000,2.000000,1.000000,6.000000,0.500000,1.000000
33, test, 5, probe, 15, 3, 2, 2, 3, 0.6, 0.4, right, 2, 0.3, 0.4, 0.6, 0.7, 0.4908242999808863, 1, 59.64031982421875, 3.033293000073172, 7.000000, 63.000000, 2.000000,2.000000,1.000000,6.000000,0.500000,1.000000
33, test, 5, no_probe, 16, 1, 3, 1, 3, 0.3, 0.6, left, 1, 0.3, 0.4, 0.6, 0.7, 0.9179835000541061, 0, , , 7.000000, 63.000000, 1.000000,2.000000,1.000000,6.000000,0.500000,1.000000
33, test, 5, probe, 17, 1, 4, 4, 1, 0.3, 0.7, right, 2, 0.3, 0.4, 0.6, 0.7, 0.5356565000256523, 1, 61.064178466796875, 1.949971199966967, 8.000000, 64.000000, 2.000000,2.000000,1.000000,6.000000,0.500000,1.000000
33, test, 5, no_probe, 18, 2, 4, 2, 4, 0.4, 0.7, left, 1, 0.3, 0.4, 0.6, 0.7, 0.7603212998947129, 0, , , 8.000000, 64.000000, 1.000000,2.000000,1.000000,6.000000,0.500000,1.000000
33, test, 5, probe, 19, 4, 3, 3, 4, 0.7, 0.6, right, 2, 0.3, 0.4, 0.6, 0.7, 0.7401312999427319, 0, 38.988922119140625, 1.36663609999232, 8.000000, 64.000000, 2.000000,2.000000,1.000000,6.000000,0.500000,1.000000
33, test, 5, no_probe, 20, 3, 4, 3, 4, 0.6, 0.7, left, 1, 0.3, 0.4, 0.6, 0.7, 0.7476609000004828, 1, , , 9.000000, 65.000000, 1.000000,2.000000,1.000000,6.000000,0.500000,1.000000
33, test, 5, probe, 21, 3, 1, 1, 3, 0.6, 0.3, right, 2, 0.3, 0.4, 0.6, 0.7, 2.0180715000024065, 1, 39.95758056640625, 1.1499576000496745, 10.000000, 66.000000, 2.000000,2.000000,1.000000,6.000000,0.500000,1.000000
33, test, 5, no_probe, 22, 2, 1, 2, 1, 0.4, 0.3, left, 1, 0.3, 0.4, 0.6, 0.7, 1.2593174000503495, 0, , , 10.000000, 66.000000, 1.000000,2.000000,1.000000,6.000000,0.500000,1.000000
33, test, 5, probe, 23, 1, 4, 1, 4, 0.3, 0.7, left, 1, 0.3, 0.4, 0.6, 0.7, 0.8106186999939382, 0, 41.33551025390625, 1.1333680999232456, 10.000000, 66.000000, 2.000000,2.000000,1.000000,6.000000,0.500000,1.000000
33, test, 5, no_probe, 24, 2, 4, 4, 2, 0.4, 0.7, right, 2, 0.3, 0.4, 0.6, 0.7, 0.8582808999344707, 1, , , 11.000000, 67.000000, 1.000000,2.000000,1.000000,6.000000,0.500000,1.000000
33, test, 5, probe, 25, 2, 3, 3, 2, 0.4, 0.6, right, 2, 0.3, 0.4, 0.6, 0.7, 1.316673900000751, 0, 40.27618408203125, 2.1666411999613047, 11.000000, 67.000000, 2.000000,2.000000,1.000000,6.000000,0.500000,1.000000
33, test, 6, no_probe, 1, 3, 1, 1, 3, 0.6, 0.3, right, 2, 0.3, 0.4, 0.6, 0.7, 3.296166699961759, 0, , , 0.000000, 67.000000, 1.000000,2.000000,1.000000,6.000000,0.500000,1.000000
33, test, 6, probe, 2, 2, 4, 2, 4, 0.4, 0.7, left, 1, 0.3, 0.4, 0.6, 0.7, 0.9455306000309065, 0, 42.9129638671875, 1.7333235000260174, 0.000000, 67.000000, 2.000000,2.000000,1.000000,6.000000,0.500000,1.000000
33, test, 6, no_probe, 3, 2, 3, 2, 3, 0.4, 0.6, left, 1, 0.3, 0.4, 0.6, 0.7, 1.9738324999343604, 0, , , 0.000000, 67.000000, 1.000000,3.000000,1.000000,6.000000,0.500000,1.000000
33, test, 6, no_probe, 4, 4, 3, 4, 3, 0.7, 0.6, left, 1, 0.3, 0.4, 0.6, 0.7, 3.0085232000565156, 0, , , 0.000000, 67.000000, 2.000000,3.000000,1.000000,6.000000,0.500000,1.000000
33, test, 6, probe, 5, 2, 1, 1, 2, 0.4, 0.3, right, 2, 0.3, 0.4, 0.6, 0.7, 0.6858147999737412, 0, 40.1602783203125, 0.9333014000440016, 0.000000, 67.000000, 3.000000,3.000000,1.000000,6.000000,0.500000,1.000000
33, test, 6, no_probe, 6, 2, 1, 1, 2, 0.4, 0.3, right, 2, 0.3, 0.4, 0.6, 0.7, 1.3501799999503419, 1, , , 1.000000, 68.000000, 1.000000,3.000000,1.000000,6.000000,0.500000,1.000000
33, test, 6, no_probe, 7, 4, 2, 4, 2, 0.7, 0.4, left, 1, 0.3, 0.4, 0.6, 0.7, 1.765572400065139, 0, , , 1.000000, 68.000000, 2.000000,3.000000,1.000000,6.000000,0.500000,1.000000
33, test, 6, probe, 8, 2, 1, 2, 1, 0.4, 0.3, left, 1, 0.3, 0.4, 0.6, 0.7, 1.5163392999675125, 1, 38.5621337890625, 2.033304699929431, 2.000000, 69.000000, 3.000000,3.000000,1.000000,6.000000,0.500000,1.000000
33, test, 6, no_probe, 9, 3, 2, 3, 2, 0.6, 0.4, left, 1, 0.3, 0.4, 0.6, 0.7, 2.057325799949467, 0, , , 2.000000, 69.000000, 1.000000,3.000000,1.000000,6.000000,0.500000,1.000000
33, test, 6, no_probe, 10, 4, 2, 2, 4, 0.7, 0.4, right, 2, 0.3, 0.4, 0.6, 0.7, 1.249636400025338, 0, , , 2.000000, 69.000000, 2.000000,3.000000,1.000000,6.000000,0.500000,1.000000
33, test, 6, probe, 11, 3, 4, 3, 4, 0.6, 0.7, left, 1, 0.3, 0.4, 0.6, 0.7, 0.6249721999047324, 0, 40.027587890625, 1.383394500007853, 2.000000, 69.000000, 3.000000,3.000000,1.000000,6.000000,0.500000,1.000000
33, test, 6, no_probe, 12, 2, 4, 2, 4, 0.4, 0.7, left, 1, 0.3, 0.4, 0.6, 0.7, 1.4609981999965385, 1, , , 3.000000, 70.000000, 1.000000,3.000000,1.000000,6.000000,0.500000,1.000000
33, test, 6, no_probe, 13, 4, 1, 1, 4, 0.7, 0.3, right, 2, 0.3, 0.4, 0.6, 0.7, 1.8723193999612704, 1, , , 4.000000, 71.000000, 2.000000,3.000000,1.000000,6.000000,0.500000,1.000000
33, test, 6, probe, 14, 2, 1, 1, 2, 0.4, 0.3, right, 2, 0.3, 0.4, 0.6, 0.7, 1.0189944999292493, 0, 39.27435302734375, 1.1166665999917313, 4.000000, 71.000000, 3.000000,3.000000,1.000000,6.000000,0.500000,1.000000
33, test, 6, no_probe, 15, 4, 2, 4, 2, 0.7, 0.4, left, 1, 0.3, 0.4, 0.6, 0.7, 1.34040569991339, 0, , , 4.000000, 71.000000, 1.000000,3.000000,1.000000,6.000000,0.500000,1.000000
33, test, 6, no_probe, 16, 1, 4, 4, 1, 0.3, 0.7, right, 2, 0.3, 0.4, 0.6, 0.7, 0.5083210000302643, 0, , , 4.000000, 71.000000, 2.000000,3.000000,1.000000,6.000000,0.500000,1.000000
33, test, 6, probe, 17, 3, 1, 1, 3, 0.6, 0.3, right, 2, 0.3, 0.4, 0.6, 0.7, 1.3019991000182927, 1, 39.9234619140625, 1.1500049999449402, 5.000000, 72.000000, 3.000000,3.000000,1.000000,6.000000,0.500000,1.000000
33, test, 6, no_probe, 18, 3, 4, 3, 4, 0.6, 0.7, left, 1, 0.3, 0.4, 0.6, 0.7, 4.536969000007957, 1, , , 6.000000, 73.000000, 1.000000,3.000000,1.000000,6.000000,0.500000,1.000000
33, test, 6, no_probe, 19, 4, 3, 4, 3, 0.7, 0.6, left, 1, 0.3, 0.4, 0.6, 0.7, 1.4930150000145659, 0, , , 6.000000, 73.000000, 2.000000,3.000000,1.000000,6.000000,0.500000,1.000000
33, test, 6, probe, 20, 2, 1, 2, 1, 0.4, 0.3, left, 1, 0.3, 0.4, 0.6, 0.7, 0.6980223000282422, 0, 40.565521240234375, 2.233340899925679, 6.000000, 73.000000, 3.000000,3.000000,1.000000,6.000000,0.500000,1.000000
33, test, 6, no_probe, 21, 4, 1, 1, 4, 0.7, 0.3, right, 2, 0.3, 0.4, 0.6, 0.7, 1.9856218999484554, 1, , , 7.000000, 74.000000, 1.000000,2.000000,1.000000,6.000000,0.500000,1.000000
33, test, 6, probe, 22, 3, 2, 2, 3, 0.6, 0.4, right, 2, 0.3, 0.4, 0.6, 0.7, 0.8502717000665143, 1, 42.881317138671875, 1.1332942999433726, 8.000000, 75.000000, 2.000000,2.000000,1.000000,6.000000,0.500000,1.000000
33, test, 6, abort_trial, 23
33, test, 6, no_probe, 24, 4, 1, 1, 4, 0.7, 0.3, right, 2, 0.3, 0.4, 0.6, 0.7, 1.9919924000278115, 1, , , 9.000000, 76.000000, 1.000000,2.000000,1.000000,6.000000,0.500000,1.000000
33, test, 6, probe, 25, 4, 3, 3, 4, 0.7, 0.6, right, 2, 0.3, 0.4, 0.6, 0.7, 1.3859702999470755, 0, 42.22210693359375, 1.3833481000037864, 9.000000, 76.000000, 2.000000,2.000000,1.000000,6.000000,0.500000,1.000000
33, test, 7, no_probe, 1, 4, 3, 4, 3, 0.7, 0.6, left, 1, 0.3, 0.4, 0.6, 0.7, 2.3783283999655396, 1, , , 1.000000, 77.000000, 1.000000,3.000000,1.000000,6.000000,0.500000,1.000000
33, test, 7, no_probe, 2, 3, 2, 2, 3, 0.6, 0.4, right, 2, 0.3, 0.4, 0.6, 0.7, 0.8169959000078961, 1, , , 2.000000, 78.000000, 2.000000,3.000000,1.000000,6.000000,0.500000,1.000000
33, test, 7, probe, 3, 1, 4, 4, 1, 0.3, 0.7, right, 2, 0.3, 0.4, 0.6, 0.7, 0.6256656999466941, 0, 43.553985595703125, 1.4496821999782696, 2.000000, 78.000000, 3.000000,3.000000,1.000000,6.000000,0.500000,1.000000
33, test, 7, no_probe, 4, 2, 1, 2, 1, 0.4, 0.3, left, 1, 0.3, 0.4, 0.6, 0.7, 0.8853131999494508, 0, , , 2.000000, 78.000000, 1.000000,2.000000,1.000000,6.000000,0.500000,1.000000
33, test, 7, probe, 5, 1, 2, 2, 1, 0.3, 0.4, right, 2, 0.3, 0.4, 0.6, 0.7, 2.1077893000328913, 0, 42.612396240234375, 1.1166785000823438, 2.000000, 78.000000, 2.000000,2.000000,1.000000,6.000000,0.500000,1.000000
33, test, 7, no_probe, 6, 1, 3, 1, 3, 0.3, 0.6, left, 1, 0.3, 0.4, 0.6, 0.7, 0.7243255999637768, 0, , , 2.000000, 78.000000, 1.000000,3.000000,1.000000,6.000000,0.500000,1.000000
33, test, 7, no_probe, 7, 1, 2, 1, 2, 0.3, 0.4, left, 1, 0.3, 0.4, 0.6, 0.7, 1.2360229999758303, 0, , , 2.000000, 78.000000, 2.000000,3.000000,1.000000,6.000000,0.500000,1.000000
33, test, 7, probe, 8, 2, 4, 2, 4, 0.4, 0.7, left, 1, 0.3, 0.4, 0.6, 0.7, 0.820013599935919, 1, 42.944061279296875, 1.0167186999460682, 3.000000, 79.000000, 3.000000,3.000000,1.000000,6.000000,0.500000,1.000000
33, test, 7, no_probe, 9, 3, 4, 3, 4, 0.6, 0.7, left, 1, 0.3, 0.4, 0.6, 0.7, 0.7276458999840543, 1, , , 4.000000, 80.000000, 1.000000,2.000000,1.000000,6.000000,0.500000,1.000000
33, test, 7, probe, 10, 1, 3, 3, 1, 0.3, 0.6, right, 2, 0.3, 0.4, 0.6, 0.7, 0.8673045999603346, 0, 37.559906005859375, 2.1500016000354663, 4.000000, 80.000000, 2.000000,2.000000,1.000000,6.000000,0.500000,1.000000
33, test, 7, no_probe, 11, 1, 2, 1, 2, 0.3, 0.4, left, 1, 0.3, 0.4, 0.6, 0.7, 1.3556731999851763, 0, , , 4.000000, 80.000000, 1.000000,3.000000,1.000000,6.000000,0.500000,1.000000
33, test, 7, no_probe, 12, 4, 1, 4, 1, 0.7, 0.3, left, 1, 0.3, 0.4, 0.6, 0.7, 1.062975600012578, 1, , , 5.000000, 81.000000, 2.000000,3.000000,1.000000,6.000000,0.500000,1.000000
33, test, 7, probe, 13, 1, 4, 1, 4, 0.3, 0.7, left, 1, 0.3, 0.4, 0.6, 0.7, 0.8572618999751285, 1, 40.452178955078125, 1.2999507000204176, 6.000000, 82.000000, 3.000000,3.000000,1.000000,6.000000,0.500000,1.000000
33, test, 7, no_probe, 14, 1, 4, 4, 1, 0.3, 0.7, right, 2, 0.3, 0.4, 0.6, 0.7, 1.3074785000644624, 1, , , 7.000000, 83.000000, 1.000000,2.000000,1.000000,6.000000,0.500000,1.000000
33, test, 7, probe, 15, 1, 4, 4, 1, 0.3, 0.7, right, 2, 0.3, 0.4, 0.6, 0.7, 1.2523170999484137, 0, 43.807769775390625, 0.8833038000157103, 7.000000, 83.000000, 2.000000,2.000000,1.000000,6.000000,0.500000,1.000000
33, test, 7, no_probe, 16, 3, 1, 1, 3, 0.6, 0.3, right, 2, 0.3, 0.4, 0.6, 0.7, 1.8082063000183553, 0, , , 7.000000, 83.000000, 1.000000,2.000000,1.000000,6.000000,0.500000,1.000000
33, test, 7, probe, 17, 2, 4, 2, 4, 0.4, 0.7, left, 1, 0.3, 0.4, 0.6, 0.7, 0.8056401000358164, 1, 38.68670654296875, 1.2666626999853179, 8.000000, 84.000000, 2.000000,2.000000,1.000000,6.000000,0.500000,1.000000
33, test, 7, no_probe, 18, 1, 2, 1, 2, 0.3, 0.4, left, 1, 0.3, 0.4, 0.6, 0.7, 0.7429392000194639, 1, , , 9.000000, 85.000000, 1.000000,3.000000,1.000000,6.000000,0.500000,1.000000
33, test, 7, no_probe, 19, 1, 2, 2, 1, 0.3, 0.4, right, 2, 0.3, 0.4, 0.6, 0.7, 1.2179617000510916, 0, , , 9.000000, 85.000000, 2.000000,3.000000,1.000000,6.000000,0.500000,1.000000
33, test, 7, probe, 20, 3, 2, 2, 3, 0.6, 0.4, right, 2, 0.3, 0.4, 0.6, 0.7, 0.9506476999958977, 1, 40.89349365234375, 1.0500448000384495, 10.000000, 86.000000, 3.000000,3.000000,1.000000,6.000000,0.500000,1.000000
33, test, 7, no_probe, 21, 1, 2, 2, 1, 0.3, 0.4, right, 2, 0.3, 0.4, 0.6, 0.7, 1.0836223999504, 0, , , 10.000000, 86.000000, 1.000000,2.000000,1.000000,6.000000,0.500000,1.000000
33, test, 7, probe, 22, 1, 4, 4, 1, 0.3, 0.7, right, 2, 0.3, 0.4, 0.6, 0.7, 0.5396824000636116, 0, 49.9976806640625, 1.2666520000202581, 10.000000, 86.000000, 2.000000,2.000000,1.000000,6.000000,0.500000,1.000000
33, test, 7, no_probe, 23, 3, 1, 3, 1, 0.6, 0.3, left, 1, 0.3, 0.4, 0.6, 0.7, 0.8127774000167847, 1, , , 11.000000, 87.000000, 1.000000,3.000000,1.000000,6.000000,0.500000,1.000000
33, test, 7, no_probe, 24, 3, 4, 4, 3, 0.6, 0.7, right, 2, 0.3, 0.4, 0.6, 0.7, 0.5171411999035627, 1, , , 12.000000, 88.000000, 2.000000,3.000000,1.000000,6.000000,0.500000,1.000000
33, test, 7, probe, 25, 3, 2, 2, 3, 0.6, 0.4, right, 2, 0.3, 0.4, 0.6, 0.7, 0.6659115999937057, 1, 49.998077392578125, 1.0499849999323487, 13.000000, 89.000000, 3.000000,3.000000,1.000000,6.000000,0.500000,1.000000
33, test, 8, no_probe, 1, 4, 1, 1, 4, 0.7, 0.3, right, 2, 0.3, 0.4, 0.6, 0.7, 0.8444658999796957, 1, , , 1.000000, 90.000000, 1.000000,3.000000,1.000000,6.000000,0.500000,1.000000
33, test, 8, no_probe, 2, 2, 3, 2, 3, 0.4, 0.6, left, 1, 0.3, 0.4, 0.6, 0.7, 1.1323511999798939, 0, , , 1.000000, 90.000000, 2.000000,3.000000,1.000000,6.000000,0.500000,1.000000
33, test, 8, probe, 3, 2, 1, 2, 1, 0.4, 0.3, left, 1, 0.3, 0.4, 0.6, 0.7, 1.4443555000470951, 0, 26.904052734375, 2.1330093999858946, 1.000000, 90.000000, 3.000000,3.000000,1.000000,6.000000,0.500000,1.000000
33, test, 8, no_probe, 4, 1, 4, 4, 1, 0.3, 0.7, right, 2, 0.3, 0.4, 0.6, 0.7, 1.6776864000130445, 1, , , 2.000000, 91.000000, 1.000000,3.000000,1.000000,6.000000,0.500000,1.000000
33, test, 8, no_probe, 5, 4, 2, 2, 4, 0.7, 0.4, right, 2, 0.3, 0.4, 0.6, 0.7, 1.0883920000633225, 1, , , 3.000000, 92.000000, 2.000000,3.000000,1.000000,6.000000,0.500000,1.000000
33, test, 8, probe, 6, 2, 1, 2, 1, 0.4, 0.3, left, 1, 0.3, 0.4, 0.6, 0.7, 0.6263659000396729, 0, 28.498779296875, 1.9999995999969542, 3.000000, 92.000000, 3.000000,3.000000,1.000000,6.000000,0.500000,1.000000
33, test, 8, no_probe, 7, 2, 1, 1, 2, 0.4, 0.3, right, 2, 0.3, 0.4, 0.6, 0.7, 0.5376146999187768, 0, , , 3.000000, 92.000000, 1.000000,2.000000,1.000000,6.000000,0.500000,1.000000
33, test, 8, probe, 8, 2, 1, 2, 1, 0.4, 0.3, left, 1, 0.3, 0.4, 0.6, 0.7, 1.4377297000028193, 0, 20.44622802734375, 1.799980300012976, 3.000000, 92.000000, 2.000000,2.000000,1.000000,6.000000,0.500000,1.000000
33, test, 8, no_probe, 9, 4, 1, 1, 4, 0.7, 0.3, right, 2, 0.3, 0.4, 0.6, 0.7, 0.4845331000396982, 0, , , 3.000000, 92.000000, 1.000000,3.000000,1.000000,6.000000,0.500000,1.000000
33, test, 8, no_probe, 10, 2, 1, 2, 1, 0.4, 0.3, left, 1, 0.3, 0.4, 0.6, 0.7, 0.7313750999746844, 0, , , 3.000000, 92.000000, 2.000000,3.000000,1.000000,6.000000,0.500000,1.000000
33, test, 8, probe, 11, 4, 1, 4, 1, 0.7, 0.3, left, 1, 0.3, 0.4, 0.6, 0.7, 0.8153776000253856, 0, 22.553466796875, 1.3167105000466108, 3.000000, 92.000000, 3.000000,3.000000,1.000000,6.000000,0.500000,1.000000
33, test, 8, no_probe, 12, 2, 1, 1, 2, 0.4, 0.3, right, 2, 0.3, 0.4, 0.6, 0.7, 0.5530037999851629, 1, , , 4.000000, 93.000000, 1.000000,2.000000,1.000000,6.000000,0.500000,1.000000
33, test, 8, probe, 13, 3, 4, 4, 3, 0.6, 0.7, right, 2, 0.3, 0.4, 0.6, 0.7, 0.8043600000673905, 1, 27.3385009765625, 1.283298800000921, 5.000000, 94.000000, 2.000000,2.000000,1.000000,6.000000,0.500000,1.000000
33, test, 8, no_probe, 14, 2, 4, 4, 2, 0.4, 0.7, right, 2, 0.3, 0.4, 0.6, 0.7, 0.6344723000656813, 0, , , 5.000000, 94.000000, 1.000000,2.000000,1.000000,6.000000,0.500000,1.000000
33, test, 8, probe, 15, 3, 1, 1, 3, 0.6, 0.3, right, 2, 0.3, 0.4, 0.6, 0.7, 0.5939531999174505, 1, 31.027435302734375, 1.2833978000562638, 6.000000, 95.000000, 2.000000,2.000000,1.000000,6.000000,0.500000,1.000000
33, test, 8, no_probe, 16, 3, 1, 1, 3, 0.6, 0.3, right, 2, 0.3, 0.4, 0.6, 0.7, 0.4796269000507891, 0, , , 6.000000, 95.000000, 1.000000,2.000000,1.000000,6.000000,0.500000,1.000000
33, test, 8, probe, 17, 2, 4, 4, 2, 0.4, 0.7, right, 2, 0.3, 0.4, 0.6, 0.7, 0.6097908000228927, 0, 26.4488525390625, 1.2999496998963878, 6.000000, 95.000000, 2.000000,2.000000,1.000000,6.000000,0.500000,1.000000
33, test, 8, no_probe, 18, 4, 2, 2, 4, 0.7, 0.4, right, 2, 0.3, 0.4, 0.6, 0.7, 0.5100520000560209, 0, , , 6.000000, 95.000000, 1.000000,3.000000,1.000000,6.000000,0.500000,1.000000
33, test, 8, no_probe, 19, 1, 3, 1, 3, 0.3, 0.6, left, 1, 0.3, 0.4, 0.6, 0.7, 0.6753646999131888, 0, , , 6.000000, 95.000000, 2.000000,3.000000,1.000000,6.000000,0.500000,1.000000
33, test, 8, probe, 20, 2, 3, 3, 2, 0.4, 0.6, right, 2, 0.3, 0.4, 0.6, 0.7, 0.9499706000788137, 1, 29.23248291015625, 1.5499974000267684, 7.000000, 96.000000, 3.000000,3.000000,1.000000,6.000000,0.500000,1.000000
33, test, 8, no_probe, 21, 2, 4, 4, 2, 0.4, 0.7, right, 2, 0.3, 0.4, 0.6, 0.7, 0.6980171999894083, 1, , , 8.000000, 97.000000, 1.000000,2.000000,1.000000,6.000000,0.500000,1.000000
33, test, 8, probe, 22, 2, 4, 4, 2, 0.4, 0.7, right, 2, 0.3, 0.4, 0.6, 0.7, 0.7103347999509424, 0, 35.461578369140625, 1.2999761999817565, 8.000000, 97.000000, 2.000000,2.000000,1.000000,6.000000,0.500000,1.000000
33, test, 8, no_probe, 23, 1, 3, 3, 1, 0.3, 0.6, right, 2, 0.3, 0.4, 0.6, 0.7, 0.5592377999564633, 0, , , 8.000000, 97.000000, 1.000000,3.000000,1.000000,6.000000,0.500000,1.000000
33, test, 8, no_probe, 24, 3, 1, 3, 1, 0.6, 0.3, left, 1, 0.3, 0.4, 0.6, 0.7, 0.7700441000051796, 1, , , 9.000000, 98.000000, 2.000000,3.000000,1.000000,6.000000,0.500000,1.000000
33, test, 8, probe, 25, 2, 4, 4, 2, 0.4, 0.7, right, 2, 0.3, 0.4, 0.6, 0.7, 0.9409825000911951, 1, 24.3990478515625, 1.9667211000341922, 10.000000, 99.000000, 3.000000,3.000000,1.000000,6.000000,0.500000,1.000000
