subject, block_type, block, thought probe, trial, chosen, unchosen, offer_left_image, offer_right_image, exp_value_chosen, exp_value_unchosen, choice_location, choice_key, exp_value1, exp_value2, exp_value3, exp_value4, RT, reward, vas, RT_vas, coins_per_block, coins_per_task, count_to_prob, ntrial_to_prob, ITI_duration,RT_deadline,choice_feedback_duration,outcome_duration
4, test, 1, no_probe, 1, 1, 2, 2, 1, 0.3, 0.4, right, 2, 0.3, 0.4, 0.6, 0.7, 0.9534296999918297, 0, , , 0.000000, 0.000000, 1.000000,2.000000,1.000000,6.000000,0.500000,1.000000
4, test, 1, abort_prob, 2, 4, 3, 4, 3, 0.7, 0.6, left, 1, 0.3, 0.4, 0.6, 0.7, 1.0810418999753892, 1, , , 1.000000, 1.000000, 2.000000,2.000000,1.000000,6.000000,0.500000,1.000000
4, test, 1, no_probe, 3, 4, 3, 3, 4, 0.7, 0.6, right, 2, 0.3, 0.4, 0.6, 0.7, 0.986218599951826, 1, , , 2.000000, 2.000000, 1.000000,2.000000,1.000000,6.000000,0.500000,1.000000
4, test, 1, probe, 4, 4, 2, 4, 2, 0.7, 0.4, left, 1, 0.3, 0.4, 0.6, 0.7, 0.568583199987188, 1, 74.5556640625, 3.0332933999598026, 3.000000, 3.000000, 2.000000,2.000000,1.000000,6.000000,0.500000,1.000000
4, test, 1, no_probe, 5, 3, 1, 1, 3, 0.6, 0.3, right, 2, 0.3, 0.4, 0.6, 0.7, 0.6768598998896778, 1, , , 4.000000, 4.000000, 1.000000,3.000000,1.000000,6.000000,0.500000,1.000000
4, test, 1, no_probe, 6, 2, 1, 1, 2, 0.4, 0.3, right, 2, 0.3, 0.4, 0.6, 0.7, 0.7544727000640705, 0, , , 4.000000, 4.000000, 2.000000,3.000000,1.000000,6.000000,0.500000,1.000000
4, test, 1, no_probe, 1, 3, 4, 3, 4, 0.6, 0.7, left, 1, 0.3, 0.4, 0.6, 0.7, 0.5062564999097958, 0, , , 0.000000, 4.000000, 1.000000,3.000000,1.000000,6.000000,0.500000,1.000000
4, test, 1, no_probe, 2, 3, 1, 1, 3, 0.6, 0.3, right, 2, 0.3, 0.4, 0.6, 0.7, 0.5183891000924632, 0, , , 0.000000, 4.000000, 2.000000,3.000000,1.000000,6.000000,0.500000,1.000000
4, test, 1, probe, 3, 2, 3, 3, 2, 0.4, 0.6, right, 2, 0.3, 0.4, 0.6, 0.7, 0.7477511999895796, 1, 75.4947509765625, 2.399489700095728, 1.000000, 5.000000, 3.000000,3.000000,1.000000,6.000000,0.500000,1.000000
4, test, 1, no_probe, 4, 1, 3, 3, 1, 0.3, 0.6, right, 2, 0.3, 0.4, 0.6, 0.7, 0.8147442999761552, 1, , , 2.000000, 6.000000, 1.000000,2.000000,1.000000,6.000000,0.500000,1.000000
4, test, 1, probe, 5, 1, 2, 1, 2, 0.3, 0.4, left, 1, 0.3, 0.4, 0.6, 0.7, 0.8667040999280289, 0, 62.903900146484375, 2.1165405999636278, 2.000000, 6.000000, 2.000000,2.000000,1.000000,6.000000,0.500000,1.000000
4, test, 1, no_probe, 6, 3, 1, 1, 3, 0.6, 0.3, right, 2, 0.3, 0.4, 0.6, 0.7, 1.5949351999443024, 0, , , 2.000000, 6.000000, 1.000000,2.000000,1.000000,6.000000,0.500000,1.000000
4, test, 1, probe, 7, 2, 3, 3, 2, 0.4, 0.6, right, 2, 0.3, 0.4, 0.6, 0.7, 0.7930996000068262, 1, 62.392364501953125, 2.216680399957113, 3.000000, 7.000000, 2.000000,2.000000,1.000000,6.000000,0.500000,1.000000
4, test, 1, no_probe, 8, 4, 1, 1, 4, 0.7, 0.3, right, 2, 0.3, 0.4, 0.6, 0.7, 1.1042590000433847, 1, , , 4.000000, 8.000000, 1.000000,2.000000,1.000000,6.000000,0.500000,1.000000
4, test, 1, probe, 9, 4, 3, 4, 3, 0.7, 0.6, left, 1, 0.3, 0.4, 0.6, 0.7, 0.6741838000016287, 1, 69.26144409179688, 1.5832801000215113, 5.000000, 9.000000, 2.000000,2.000000,1.000000,6.000000,0.500000,1.000000
4, test, 1, no_probe, 10, 4, 3, 3, 4, 0.7, 0.6, right, 2, 0.3, 0.4, 0.6, 0.7, 1.7516276000533253, 0, , , 5.000000, 9.000000, 1.000000,3.000000,1.000000,6.000000,0.500000,1.000000
4, test, 1, no_probe, 11, 4, 3, 4, 3, 0.7, 0.6, left, 1, 0.3, 0.4, 0.6, 0.7, 0.45078339998144656, 1, , , 6.000000, 10.000000, 2.000000,3.000000,1.000000,6.000000,0.500000,1.000000
4, test, 1, probe, 12, 1, 3, 3, 1, 0.3, 0.6, right, 2, 0.3, 0.4, 0.6, 0.7, 0.9787983000278473, 1, 64.44583129882812, 2.0833496999694034, 7.000000, 11.000000, 3.000000,3.000000,1.000000,6.000000,0.500000,1.000000
4, test, 1, no_probe, 13, 3, 4, 3, 4, 0.6, 0.7, left, 1, 0.3, 0.4, 0.6, 0.7, 0.8836825999896973, 0, , , 7.000000, 11.000000, 1.000000,2.000000,1.000000,6.000000,0.500000,1.000000
4, test, 1, probe, 14, 4, 1, 4, 1, 0.7, 0.3, left, 1, 0.3, 0.4, 0.6, 0.7, 0.4987507000332698, 1, 59.32958984375, 3.483256500097923, 8.000000, 12.000000, 2.000000,2.000000,1.000000,6.000000,0.500000,1.000000
4, test, 1, no_probe, 15, 4, 2, 4, 2, 0.7, 0.4, left, 1, 0.3, 0.4, 0.6, 0.7, 0.5944192999741063, 1, , , 9.000000, 13.000000, 1.000000,2.000000,1.000000,6.000000,0.500000,1.000000
4, test, 1, probe, 16, 4, 2, 2, 4, 0.7, 0.4, right, 2, 0.3, 0.4, 0.6, 0.7, 0.592392300022766, 1, 62.523590087890625, 1.683368399972096, 10.000000, 14.000000, 2.000000,2.000000,1.000000,6.000000,0.500000,1.000000
4, test, 1, no_probe, 17, 4, 3, 3, 4, 0.7, 0.6, right, 2, 0.3, 0.4, 0.6, 0.7, 0.49743089999537915, 0, , , 10.000000, 14.000000, 1.000000,3.000000,1.000000,6.000000,0.500000,1.000000
4, test, 1, no_probe, 18, 4, 3, 4, 3, 0.7, 0.6, left, 1, 0.3, 0.4, 0.6, 0.7, 0.6389864000957459, 0, , , 10.000000, 14.000000, 2.000000,3.000000,1.000000,6.000000,0.500000,1.000000
4, test, 1, probe, 19, 3, 1, 3, 1, 0.6, 0.3, left, 1, 0.3, 0.4, 0.6, 0.7, 0.40786819998174906, 1, 62.809906005859375, 1.4166288999840617, 11.000000, 15.000000, 3.000000,3.000000,1.000000,6.000000,0.500000,1.000000
4, test, 1, no_probe, 20, 4, 2, 4, 2, 0.7, 0.4, left, 1, 0.3, 0.4, 0.6, 0.7, 0.6465060000773519, 1, , , 12.000000, 16.000000, 1.000000,2.000000,1.000000,6.000000,0.500000,1.000000
4, test, 1, probe, 21, 1, 4, 1, 4, 0.3, 0.7, left, 1, 0.3, 0.4, 0.6, 0.7, 0.5138952999841422, 0, 41.8955078125, 4.216679999954067, 12.000000, 16.000000, 2.000000,2.000000,1.000000,6.000000,0.500000,1.000000
4, test, 1, no_probe, 22, 1, 3, 1, 3, 0.3, 0.6, left, 1, 0.3, 0.4, 0.6, 0.7, 0.5727357999421656, 0, , , 12.000000, 16.000000, 1.000000,2.000000,1.000000,6.000000,0.500000,1.000000
4, test, 1, probe, 23, 3, 2, 2, 3, 0.6, 0.4, right, 2, 0.3, 0.4, 0.6, 0.7, 0.4763814000179991, 1, 53.783416748046875, 2.583241399959661, 13.000000, 17.000000, 2.000000,2.000000,1.000000,6.000000,0.500000,1.000000
4, test, 1, no_probe, 24, 3, 1, 3, 1, 0.6, 0.3, left, 1, 0.3, 0.4, 0.6, 0.7, 0.47370069997850806, 0, , , 13.000000, 17.000000, 1.000000,3.000000,1.000000,6.000000,0.500000,1.000000
4, test, 1, no_probe, 25, 1, 2, 2, 1, 0.3, 0.4, right, 2, 0.3, 0.4, 0.6, 0.7, 0.4090058000292629, 1, , , 14.000000, 18.000000, 2.000000,3.000000,1.000000,6.000000,0.500000,1.000000
4, test, 2, no_probe, 1, 3, 2, 3, 2, 0.6, 0.4, left, 1, 0.3, 0.4, 0.6, 0.7, 0.504178800038062, 0, , , 0.000000, 18.000000, 1.000000,3.000000,1.000000,6.000000,0.500000,1.000000
4, test, 2, no_probe, 2, 1, 2, 2, 1, 0.3, 0.4, right, 2, 0.3, 0.4, 0.6, 0.7, 0.8685011001070961, 0, , , 0.000000, 18.000000, 2.000000,3.000000,1.000000,6.000000,0.500000,1.000000
4, test, 2, probe, 3, 4, 3, 3, 4, 0.7, 0.6, right, 2, 0.3, 0.4, 0.6, 0.7, 0.9678955000126734, 0, 62.164703369140625, 3.416272799950093, 0.000000, 18.000000, 3.000000,3.000000,1.000000,6.000000,0.500000,1.000000
4, test, 2, no_probe, 4, 4, 2, 2, 4, 0.7, 0.4, right, 2, 0.3, 0.4, 0.6, 0.7, 1.1521744000492617, 0, , , 0.000000, 18.000000, 1.000000,2.000000,1.000000,6.000000,0.500000,1.000000
4, test, 2, probe, 5, 1, 3, 3, 1, 0.3, 0.6, right, 2, 0.3, 0.4, 0.6, 0.7, 0.7726722999941558, 0, 60.187774658203125, 3.1332790000597015, 0.000000, 18.000000, 2.000000,2.000000,1.000000,6.000000,0.500000,1.000000
4, test, 2, no_probe, 6, 4, 2, 4, 2, 0.7, 0.4, left, 1, 0.3, 0.4, 0.6, 0.7, 0.8563259000657126, 1, , , 1.000000, 19.000000, 1.000000,2.000000,1.000000,6.000000,0.500000,1.000000
4, test, 2, probe, 7, 2, 4, 2, 4, 0.4, 0.7, left, 1, 0.3, 0.4, 0.6, 0.7, 0.9907902999548241, 1, 63.6220703125, 2.483313100063242, 2.000000, 20.000000, 2.000000,2.000000,1.000000,6.000000,0.500000,1.000000
4, test, 2, no_probe, 8, 1, 4, 1, 4, 0.3, 0.7, left, 1, 0.3, 0.4, 0.6, 0.7, 0.8812016000738367, 0, , , 2.000000, 20.000000, 1.000000,3.000000,1.000000,6.000000,0.500000,1.000000
4, test, 2, no_probe, 9, 4, 2, 4, 2, 0.7, 0.4, left, 1, 0.3, 0.4, 0.6, 0.7, 0.7272832000162452, 1, , , 3.000000, 21.000000, 2.000000,3.000000,1.000000,6.000000,0.500000,1.000000
4, test, 2, probe, 10, 4, 1, 1, 4, 0.7, 0.3, right, 2, 0.3, 0.4, 0.6, 0.7, 0.739334600046277, 1, 60.602081298828125, 2.1999584001023322, 4.000000, 22.000000, 3.000000,3.000000,1.000000,6.000000,0.500000,1.000000
4, test, 2, no_probe, 11, 1, 2, 2, 1, 0.3, 0.4, right, 2, 0.3, 0.4, 0.6, 0.7, 1.5973094999790192, 0, , , 4.000000, 22.000000, 1.000000,3.000000,1.000000,6.000000,0.500000,1.000000
4, test, 2, no_probe, 12, 2, 3, 2, 3, 0.4, 0.6, left, 1, 0.3, 0.4, 0.6, 0.7, 0.4627170000458136, 1, , , 5.000000, 23.000000, 2.000000,3.000000,1.000000,6.000000,0.500000,1.000000
4, test, 2, probe, 13, 1, 3, 1, 3, 0.3, 0.6, left, 1, 0.3, 0.4, 0.6, 0.7, 0.5256873000180349, 1, 43.15283203125, 3.8999603999545798, 6.000000, 24.000000, 3.000000,3.000000,1.000000,6.000000,0.500000,1.000000
4, test, 2, no_probe, 14, 4, 2, 4, 2, 0.7, 0.4, left, 1, 0.3, 0.4, 0.6, 0.7, 0.4494220999768004, 1, , , 7.000000, 25.000000, 1.000000,2.000000,1.000000,6.000000,0.500000,1.000000
4, test, 2, probe, 15, 4, 3, 3, 4, 0.7, 0.6, right, 2, 0.3, 0.4, 0.6, 0.7, 0.7815431000199169, 0, 47.6226806640625, 3.483324099914171, 7.000000, 25.000000, 2.000000,2.000000,1.000000,6.000000,0.500000,1.000000
4, test, 2, no_probe, 16, 3, 2, 3, 2, 0.6, 0.4, left, 1, 0.3, 0.4, 0.6, 0.7, 0.567365900031291, 1, , , 8.000000, 26.000000, 1.000000,2.000000,1.000000,6.000000,0.500000,1.000000
4, test, 2, probe, 17, 1, 2, 1, 2, 0.3, 0.4, left, 1, 0.3, 0.4, 0.6, 0.7, 0.8292788000544533, 1, 53.765350341796875, 3.6999386000679806, 9.000000, 27.000000, 2.000000,2.000000,1.000000,6.000000,0.500000,1.000000
4, test, 2, no_probe, 18, 3, 2, 3, 2, 0.6, 0.4, left, 1, 0.3, 0.4, 0.6, 0.7, 0.8845329000614583, 1, , , 10.000000, 28.000000, 1.000000,2.000000,1.000000,6.000000,0.500000,1.000000
4, test, 2, probe, 19, 3, 2, 2, 3, 0.6, 0.4, right, 2, 0.3, 0.4, 0.6, 0.7, 0.34140269993804395, 1, 61.07684326171875, 2.1999657000415027, 11.000000, 29.000000, 2.000000,2.000000,1.000000,6.000000,0.500000,1.000000
4, test, 2, no_probe, 20, 2, 1, 2, 1, 0.4, 0.3, left, 1, 0.3, 0.4, 0.6, 0.7, 0.6649736000690609, 1, , , 12.000000, 30.000000, 1.000000,3.000000,1.000000,6.000000,0.500000,1.000000
4, test, 2, no_probe, 21, 2, 4, 2, 4, 0.4, 0.7, left, 1, 0.3, 0.4, 0.6, 0.7, 0.4081534000579268, 0, , , 12.000000, 30.000000, 2.000000,3.000000,1.000000,6.000000,0.500000,1.000000
4, test, 2, probe, 22, 4, 1, 1, 4, 0.7, 0.3, right, 2, 0.3, 0.4, 0.6, 0.7, 0.42850879998877645, 0, 39.7110595703125, 2.7832696000114083, 12.000000, 30.000000, 3.000000,3.000000,1.000000,6.000000,0.500000,1.000000
4, test, 2, no_probe, 23, 1, 2, 1, 2, 0.3, 0.4, left, 1, 0.3, 0.4, 0.6, 0.7, 0.5610824000323191, 0, , , 12.000000, 30.000000, 1.000000,3.000000,1.000000,6.000000,0.500000,1.000000
4, test, 2, no_probe, 24, 4, 3, 3, 4, 0.7, 0.6, right, 2, 0.3, 0.4, 0.6, 0.7, 0.5112668999936432, 1, , , 13.000000, 31.000000, 2.000000,3.000000,1.000000,6.000000,0.500000,1.000000
4, test, 2, probe, 25, 4, 3, 3, 4, 0.7, 0.6, right, 2, 0.3, 0.4, 0.6, 0.7, 0.48322149994783103, 1, 40.100555419921875, 3.3999611000763252, 14.000000, 32.000000, 3.000000,3.000000,1.000000,6.000000,0.500000,1.000000
4, test, 3, no_probe, 1, 4, 1, 4, 1, 0.7, 0.3, left, 1, 0.3, 0.4, 0.6, 0.7, 0.5177738999482244, 1, , , 1.000000, 33.000000, 1.000000,2.000000,1.000000,6.000000,0.500000,1.000000
4, test, 3, probe, 2, 2, 3, 2, 3, 0.4, 0.6, left, 1, 0.3, 0.4, 0.6, 0.7, 0.9591282000765204, 0, 57.0269775390625, 2.4666675999760628, 1.000000, 33.000000, 2.000000,2.000000,1.000000,6.000000,0.500000,1.000000
4, test, 3, no_probe, 3, 4, 3, 3, 4, 0.7, 0.6, right, 2, 0.3, 0.4, 0.6, 0.7, 0.4985453999834135, 0, , , 1.000000, 33.000000, 1.000000,2.000000,1.000000,6.000000,0.500000,1.000000
4, test, 3, probe, 4, 2, 1, 2, 1, 0.4, 0.3, left, 1, 0.3, 0.4, 0.6, 0.7, 0.7679591999622062, 1, 53.752532958984375, 2.216610400006175, 2.000000, 34.000000, 2.000000,2.000000,1.000000,6.000000,0.500000,1.000000
4, test, 3, no_probe, 5, 4, 1, 1, 4, 0.7, 0.3, right, 2, 0.3, 0.4, 0.6, 0.7, 0.7211585000623018, 1, , , 3.000000, 35.000000, 1.000000,3.000000,1.000000,6.000000,0.500000,1.000000
4, test, 3, no_probe, 6, 4, 1, 1, 4, 0.7, 0.3, right, 2, 0.3, 0.4, 0.6, 0.7, 0.44183439994230866, 1, , , 4.000000, 36.000000, 2.000000,3.000000,1.000000,6.000000,0.500000,1.000000
4, test, 3, probe, 7, 4, 2, 4, 2, 0.7, 0.4, left, 1, 0.3, 0.4, 0.6, 0.7, 0.43426879995968193, 1, 56.88446044921875, 2.433310199994594, 5.000000, 37.000000, 3.000000,3.000000,1.000000,6.000000,0.500000,1.000000
4, test, 3, no_probe, 8, 4, 2, 2, 4, 0.7, 0.4, right, 2, 0.3, 0.4, 0.6, 0.7, 0.4074918000260368, 0, , , 5.000000, 37.000000, 1.000000,2.000000,1.000000,6.000000,0.500000,1.000000
4, test, 3, probe, 9, 2, 1, 2, 1, 0.4, 0.3, left, 1, 0.3, 0.4, 0.6, 0.7, 0.7514660999877378, 1, 56.62652587890625, 3.466643500025384, 6.000000, 38.000000, 2.000000,2.000000,1.000000,6.000000,0.500000,1.000000
4, test, 3, no_probe, 10, 4, 3, 4, 3, 0.7, 0.6, left, 1, 0.3, 0.4, 0.6, 0.7, 0.4795426999917254, 1, , , 7.000000, 39.000000, 1.000000,3.000000,1.000000,6.000000,0.500000,1.000000
4, test, 3, no_probe, 11, 4, 3, 4, 3, 0.7, 0.6, left, 1, 0.3, 0.4, 0.6, 0.7, 0.4331191999372095, 1, , , 8.000000, 40.000000, 2.000000,3.000000,1.000000,6.000000,0.500000,1.000000
4, test, 3, probe, 12, 2, 1, 2, 1, 0.4, 0.3, left, 1, 0.3, 0.4, 0.6, 0.7, 1.0495353000005707, 0, 44.68878173828125, 2.0332505999831483, 8.000000, 40.000000, 3.000000,3.000000,1.000000,6.000000,0.500000,1.000000
4, test, 3, no_probe, 13, 2, 3, 3, 2, 0.4, 0.6, right, 2, 0.3, 0.4, 0.6, 0.7, 0.5656893999548629, 1, , , 9.000000, 41.000000, 1.000000,3.000000,1.000000,6.000000,0.500000,1.000000
4, test, 3, no_probe, 14, 4, 1, 1, 4, 0.7, 0.3, right, 2, 0.3, 0.4, 0.6, 0.7, 0.661739100003615, 1, , , 10.000000, 42.000000, 2.000000,3.000000,1.000000,6.000000,0.500000,1.000000
4, test, 3, probe, 15, 4, 2, 4, 2, 0.7, 0.4, left, 1, 0.3, 0.4, 0.6, 0.7, 0.7479364000027999, 1, 39.894500732421875, 9.066541799926199, 11.000000, 43.000000, 3.000000,3.000000,1.000000,6.000000,0.500000,1.000000
4, test, 3, no_probe, 16, 4, 3, 3, 4, 0.7, 0.6, right, 2, 0.3, 0.4, 0.6, 0.7, 0.8515295999823138, 1, , , 12.000000, 44.000000, 1.000000,3.000000,1.000000,6.000000,0.500000,1.000000
4, test, 3, no_probe, 17, 2, 1, 1, 2, 0.4, 0.3, right, 2, 0.3, 0.4, 0.6, 0.7, 0.8466233999934047, 1, , , 13.000000, 45.000000, 2.000000,3.000000,1.000000,6.000000,0.500000,1.000000
4, test, 3, probe, 18, 4, 3, 3, 4, 0.7, 0.6, right, 2, 0.3, 0.4, 0.6, 0.7, 0.5023129000328481, 0, 46.40496826171875, 2.0999639000510797, 13.000000, 45.000000, 3.000000,3.000000,1.000000,6.000000,0.500000,1.000000
4, test, 3, no_probe, 19, 4, 3, 4, 3, 0.7, 0.6, left, 1, 0.3, 0.4, 0.6, 0.7, 0.5098130999831483, 1, , , 14.000000, 46.000000, 1.000000,3.000000,1.000000,6.000000,0.500000,1.000000
4, test, 3, no_probe, 20, 2, 3, 2, 3, 0.4, 0.6, left, 1, 0.3, 0.4, 0.6, 0.7, 0.4039854999864474, 1, , , 15.000000, 47.000000, 2.000000,3.000000,1.000000,6.000000,0.500000,1.000000
4, test, 3, probe, 21, 2, 3, 3, 2, 0.4, 0.6, right, 2, 0.3, 0.4, 0.6, 0.7, 0.5333188000367954, 1, 55.83062744140625, 2.9832533000735566, 16.000000, 48.000000, 3.000000,3.000000,1.000000,6.000000,0.500000,1.000000
4, test, 3, no_probe, 22, 4, 3, 3, 4, 0.7, 0.6, right, 2, 0.3, 0.4, 0.6, 0.7, 0.5685276000294834, 1, , , 17.000000, 49.000000, 1.000000,2.000000,1.000000,6.000000,0.500000,1.000000
4, test, 3, probe, 23, 4, 1, 1, 4, 0.7, 0.3, right, 2, 0.3, 0.4, 0.6, 0.7, 0.48368049995042384, 1, 55.44287109375, 1.9500216000014916, 18.000000, 50.000000, 2.000000,2.000000,1.000000,6.000000,0.500000,1.000000
4, test, 3, no_probe, 24, 4, 3, 3, 4, 0.7, 0.6, right, 2, 0.3, 0.4, 0.6, 0.7, 0.41030039999168366, 1, , , 19.000000, 51.000000, 1.000000,2.000000,1.000000,6.000000,0.500000,1.000000
4, test, 3, probe, 25, 4, 3, 4, 3, 0.7, 0.6, left, 1, 0.3, 0.4, 0.6, 0.7, 0.3670216999016702, 1, 56.325592041015625, 3.7165832000318915, 20.000000, 52.000000, 2.000000,2.000000,1.000000,6.000000,0.500000,1.000000
4, test, 4, no_probe, 1, 2, 4, 2, 4, 0.4, 0.7, left, 1, 0.3, 0.4, 0.6, 0.7, 0.4830761000048369, 0, , , 0.000000, 52.000000, 1.000000,3.000000,1.000000,6.000000,0.500000,1.000000
4, test, 4, no_probe, 2, 3, 2, 2, 3, 0.6, 0.4, right, 2, 0.3, 0.4, 0.6, 0.7, 0.9068741999799386, 1, , , 1.000000, 53.000000, 2.000000,3.000000,1.000000,6.000000,0.500000,1.000000
4, test, 4, probe, 3, 3, 2, 3, 2, 0.6, 0.4, left, 1, 0.3, 0.4, 0.6, 0.7, 0.9590573000023142, 0, 58.129608154296875, 1.9162892000749707, 1.000000, 53.000000, 3.000000,3.000000,1.000000,6.000000,0.500000,1.000000
4, test, 4, no_probe, 4, 4, 3, 3, 4, 0.7, 0.6, right, 2, 0.3, 0.4, 0.6, 0.7, 0.5441178999608383, 1, , , 2.000000, 54.000000, 1.000000,2.000000,1.000000,6.000000,0.500000,1.000000
4, test, 4, probe, 5, 3, 1, 1, 3, 0.6, 0.3, right, 2, 0.3, 0.4, 0.6, 0.7, 1.0240294999675825, 1, 59.130462646484375, 1.8166088999714702, 3.000000, 55.000000, 2.000000,2.000000,1.000000,6.000000,0.500000,1.000000
4, test, 4, no_probe, 6, 4, 2, 4, 2, 0.7, 0.4, left, 1, 0.3, 0.4, 0.6, 0.7, 1.4108826000010595, 0, , , 3.000000, 55.000000, 1.000000,3.000000,1.000000,6.000000,0.500000,1.000000
4, test, 4, no_probe, 7, 3, 2, 3, 2, 0.6, 0.4, left, 1, 0.3, 0.4, 0.6, 0.7, 0.4885441999649629, 1, , , 4.000000, 56.000000, 2.000000,3.000000,1.000000,6.000000,0.500000,1.000000
4, test, 4, probe, 8, 4, 2, 2, 4, 0.7, 0.4, right, 2, 0.3, 0.4, 0.6, 0.7, 0.549438500078395, 1, 63.606842041015625, 1.266620000009425, 5.000000, 57.000000, 3.000000,3.000000,1.000000,6.000000,0.500000,1.000000
4, test, 4, no_probe, 9, 4, 2, 2, 4, 0.7, 0.4, right, 2, 0.3, 0.4, 0.6, 0.7, 0.6013066000305116, 1, , , 6.000000, 58.000000, 1.000000,3.000000,1.000000,6.000000,0.500000,1.000000
4, test, 4, no_probe, 10, 1, 2, 1, 2, 0.3, 0.4, left, 1, 0.3, 0.4, 0.6, 0.7, 0.9307582000037655, 0, , , 6.000000, 58.000000, 2.000000,3.000000,1.000000,6.000000,0.500000,1.000000
4, test, 4, probe, 11, 2, 1, 1, 2, 0.4, 0.3, right, 2, 0.3, 0.4, 0.6, 0.7, 0.5756040000123903, 1, 42.255279541015625, 2.9166444999864325, 7.000000, 59.000000, 3.000000,3.000000,1.000000,6.000000,0.500000,1.000000
4, test, 4, no_probe, 12, 4, 1, 1, 4, 0.7, 0.3, right, 2, 0.3, 0.4, 0.6, 0.7, 0.7960342000005767, 1, , , 8.000000, 60.000000, 1.000000,3.000000,1.000000,6.000000,0.500000,1.000000
4, test, 4, no_probe, 13, 4, 2, 4, 2, 0.7, 0.4, left, 1, 0.3, 0.4, 0.6, 0.7, 0.5533068999648094, 1, , , 9.000000, 61.000000, 2.000000,3.000000,1.000000,6.000000,0.500000,1.000000
4, test, 4, probe, 14, 4, 3, 4, 3, 0.7, 0.6, left, 1, 0.3, 0.4, 0.6, 0.7, 0.5524454999249429, 1, 62.95452880859375, 1.4832537000766024, 10.000000, 62.000000, 3.000000,3.000000,1.000000,6.000000,0.500000,1.000000
4, test, 4, no_probe, 15, 4, 1, 4, 1, 0.7, 0.3, left, 1, 0.3, 0.4, 0.6, 0.7, 0.4104716000147164, 1, , , 11.000000, 63.000000, 1.000000,2.000000,1.000000,6.000000,0.500000,1.000000
4, test, 4, probe, 16, 3, 1, 3, 1, 0.6, 0.3, left, 1, 0.3, 0.4, 0.6, 0.7, 0.5403797999024391, 1, 60.72686767578125, 1.7666523000225425, 12.000000, 64.000000, 2.000000,2.000000,1.000000,6.000000,0.500000,1.000000
4, test, 4, no_probe, 17, 4, 2, 4, 2, 0.7, 0.4, left, 1, 0.3, 0.4, 0.6, 0.7, 0.5811771999578923, 1, , , 13.000000, 65.000000, 1.000000,3.000000,1.000000,6.000000,0.500000,1.000000
4, test, 4, no_probe, 18, 3, 4, 4, 3, 0.6, 0.7, right, 2, 0.3, 0.4, 0.6, 0.7, 0.35143939999397844, 1, , , 14.000000, 66.000000, 2.000000,3.000000,1.000000,6.000000,0.500000,1.000000
4, test, 4, probe, 19, 4, 3, 4, 3, 0.7, 0.6, left, 1, 0.3, 0.4, 0.6, 0.7, 0.5664914000080898, 1, 56.94354248046875, 4.083317999960855, 15.000000, 67.000000, 3.000000,3.000000,1.000000,6.000000,0.500000,1.000000
4, test, 4, no_probe, 20, 2, 1, 1, 2, 0.4, 0.3, right, 2, 0.3, 0.4, 0.6, 0.7, 1.1850342999678105, 1, , , 16.000000, 68.000000, 1.000000,2.000000,1.000000,6.000000,0.500000,1.000000
4, test, 4, probe, 21, 3, 1, 1, 3, 0.6, 0.3, right, 2, 0.3, 0.4, 0.6, 0.7, 0.5710087000625208, 0, 54.759246826171875, 3.466664700070396, 16.000000, 68.000000, 2.000000,2.000000,1.000000,6.000000,0.500000,1.000000
4, test, 4, no_probe, 22, 4, 3, 3, 4, 0.7, 0.6, right, 2, 0.3, 0.4, 0.6, 0.7, 0.5289600000251085, 0, , , 16.000000, 68.000000, 1.000000,2.000000,1.000000,6.000000,0.500000,1.000000
4, test, 4, probe, 23, 3, 1, 3, 1, 0.6, 0.3, left, 1, 0.3, 0.4, 0.6, 0.7, 0.43648619996383786, 1, 54.939697265625, 1.6832782999845222, 17.000000, 69.000000, 2.000000,2.000000,1.000000,6.000000,0.500000,1.000000
4, test, 4, no_probe, 24, 4, 3, 3, 4, 0.7, 0.6, right, 2, 0.3, 0.4, 0.6, 0.7, 0.6357698999345303, 1, , , 18.000000, 70.000000, 1.000000,3.000000,1.000000,6.000000,0.500000,1.000000
4, test, 4, no_probe, 25, 3, 4, 3, 4, 0.6, 0.7, left, 1, 0.3, 0.4, 0.6, 0.7, 0.6400512000545859, 0, , , 18.000000, 70.000000, 2.000000,3.000000,1.000000,6.000000,0.500000,1.000000
4, test, 5, no_probe, 1, 3, 4, 4, 3, 0.6, 0.7, right, 2, 0.3, 0.4, 0.6, 0.7, 0.5319025999633595, 0, , , 0.000000, 70.000000, 1.000000,3.000000,1.000000,6.000000,0.500000,1.000000
4, test, 5, no_probe, 2, 2, 3, 2, 3, 0.4, 0.6, left, 1, 0.3, 0.4, 0.6, 0.7, 0.6920631000539288, 1, , , 1.000000, 71.000000, 2.000000,3.000000,1.000000,6.000000,0.500000,1.000000
4, test, 5, probe, 3, 2, 3, 2, 3, 0.4, 0.6, left, 1, 0.3, 0.4, 0.6, 0.7, 0.43758280004840344, 0, 61.674896240234375, 2.816290199989453, 1.000000, 71.000000, 3.000000,3.000000,1.000000,6.000000,0.500000,1.000000
4, test, 5, no_probe, 4, 4, 3, 3, 4, 0.7, 0.6, right, 2, 0.3, 0.4, 0.6, 0.7, 0.78773410001304, 1, , , 2.000000, 72.000000, 1.000000,2.000000,1.000000,6.000000,0.500000,1.000000
4, test, 5, probe, 5, 4, 3, 4, 3, 0.7, 0.6, left, 1, 0.3, 0.4, 0.6, 0.7, 0.40179610007908195, 1, 67.79806518554688, 1.999978500069119, 3.000000, 73.000000, 2.000000,2.000000,1.000000,6.000000,0.500000,1.000000
4, test, 5, no_probe, 6, 1, 3, 1, 3, 0.3, 0.6, left, 1, 0.3, 0.4, 0.6, 0.7, 1.2857694000704214, 1, , , 4.000000, 74.000000, 1.000000,3.000000,1.000000,6.000000,0.500000,1.000000
4, test, 5, no_probe, 7, 2, 4, 4, 2, 0.4, 0.7, right, 2, 0.3, 0.4, 0.6, 0.7, 0.9765560000669211, 0, , , 4.000000, 74.000000, 2.000000,3.000000,1.000000,6.000000,0.500000,1.000000
4, test, 5, probe, 8, 3, 2, 3, 2, 0.6, 0.4, left, 1, 0.3, 0.4, 0.6, 0.7, 0.7495731000090018, 1, 60.2698974609375, 2.3832353999605402, 5.000000, 75.000000, 3.000000,3.000000,1.000000,6.000000,0.500000,1.000000
4, test, 5, no_probe, 9, 4, 3, 4, 3, 0.7, 0.6, left, 1, 0.3, 0.4, 0.6, 0.7, 0.6342165999813005, 0, , , 5.000000, 75.000000, 1.000000,2.000000,1.000000,6.000000,0.500000,1.000000
4, test, 5, probe, 10, 2, 3, 3, 2, 0.4, 0.6, right, 2, 0.3, 0.4, 0.6, 0.7, 0.4536222000606358, 0, 60.354461669921875, 2.649975100066513, 5.000000, 75.000000, 2.000000,2.000000,1.000000,6.000000,0.500000,1.000000
4, test, 5, no_probe, 11, 4, 1, 4, 1, 0.7, 0.3, left, 1, 0.3, 0.4, 0.6, 0.7, 0.5129426999483258, 1, , , 6.000000, 76.000000, 1.000000,3.000000,1.000000,6.000000,0.500000,1.000000
4, test, 5, no_probe, 12, 4, 3, 4, 3, 0.7, 0.6, left, 1, 0.3, 0.4, 0.6, 0.7, 0.8428624999942258, 0, , , 6.000000, 76.000000, 2.000000,3.000000,1.000000,6.000000,0.500000,1.000000
4, test, 5, probe, 13, 2, 3, 3, 2, 0.4, 0.6, right, 2, 0.3, 0.4, 0.6, 0.7, 0.8708557999925688, 0, 55.597900390625, 3.083267299924046, 6.000000, 76.000000, 3.000000,3.000000,1.000000,6.000000,0.500000,1.000000
4, test, 5, no_probe, 14, 4, 1, 4, 1, 0.7, 0.3, left, 1, 0.3, 0.4, 0.6, 0.7, 0.7645589000312611, 0, , , 6.000000, 76.000000, 1.000000,2.000000,1.000000,6.000000,0.500000,1.000000
4, test, 5, probe, 15, 1, 2, 2, 1, 0.3, 0.4, right, 2, 0.3, 0.4, 0.6, 0.7, 0.8481562999077141, 0, 43.217498779296875, 6.283276699949056, 6.000000, 76.000000, 2.000000,2.000000,1.000000,6.000000,0.500000,1.000000
4, test, 5, no_probe, 16, 4, 2, 2, 4, 0.7, 0.4, right, 2, 0.3, 0.4, 0.6, 0.7, 0.5014338999753818, 1, , , 7.000000, 77.000000, 1.000000,2.000000,1.000000,6.000000,0.500000,1.000000
4, test, 5, probe, 17, 3, 1, 1, 3, 0.6, 0.3, right, 2, 0.3, 0.4, 0.6, 0.7, 0.48683619999792427, 1, 56.246917724609375, 1.7832928000716493, 8.000000, 78.000000, 2.000000,2.000000,1.000000,6.000000,0.500000,1.000000
4, test, 5, no_probe, 18, 4, 2, 4, 2, 0.7, 0.4, left, 1, 0.3, 0.4, 0.6, 0.7, 0.621404999983497, 1, , , 9.000000, 79.000000, 1.000000,2.000000,1.000000,6.000000,0.500000,1.000000
4, test, 5, probe, 19, 3, 4, 3, 4, 0.6, 0.7, left, 1, 0.3, 0.4, 0.6, 0.7, 0.45062519994098693, 1, 45.907867431640625, 3.983264400041662, 10.000000, 80.000000, 2.000000,2.000000,1.000000,6.000000,0.500000,1.000000
4, test, 5, no_probe, 20, 3, 1, 1, 3, 0.6, 0.3, right, 2, 0.3, 0.4, 0.6, 0.7, 0.45268989994656295, 0, , , 10.000000, 80.000000, 1.000000,2.000000,1.000000,6.000000,0.500000,1.000000
4, test, 5, probe, 21, 3, 1, 3, 1, 0.6, 0.3, left, 1, 0.3, 0.4, 0.6, 0.7, 0.4712434000102803, 0, 58.63372802734375, 1.8665961000369862, 10.000000, 80.000000, 2.000000,2.000000,1.000000,6.000000,0.500000,1.000000
4, test, 5, no_probe, 22, 1, 2, 1, 2, 0.3, 0.4, left, 1, 0.3, 0.4, 0.6, 0.7, 0.790392900002189, 1, , , 11.000000, 81.000000, 1.000000,3.000000,1.000000,6.000000,0.500000,1.000000
4, test, 5, no_probe, 23, 1, 2, 2, 1, 0.3, 0.4, right, 2, 0.3, 0.4, 0.6, 0.7, 0.7239253000589088, 0, , , 11.000000, 81.000000, 2.000000,3.000000,1.000000,6.000000,0.500000,1.000000
4, test, 5, probe, 24, 2, 3, 3, 2, 0.4, 0.6, right, 2, 0.3, 0.4, 0.6, 0.7, 1.2565333000384271, 0, 38.28912353515625, 2.516575700021349, 11.000000, 81.000000, 3.000000,3.000000,1.000000,6.000000,0.500000,1.000000
4, test, 5, no_probe, 25, 3, 2, 2, 3, 0.6, 0.4, right, 2, 0.3, 0.4, 0.6, 0.7, 0.3981972999172285, 0, , , 11.000000, 81.000000, 1.000000,3.000000,1.000000,6.000000,0.500000,1.000000
4, test, 6, no_probe, 1, 3, 1, 1, 3, 0.6, 0.3, right, 2, 0.3, 0.4, 0.6, 0.7, 0.5169208999723196, 0, , , 0.000000, 81.000000, 1.000000,2.000000,1.000000,6.000000,0.500000,1.000000
4, test, 6, probe, 2, 4, 3, 3, 4, 0.7, 0.6, right, 2, 0.3, 0.4, 0.6, 0.7, 0.5778394999215379, 1, 60.265838623046875, 2.6666563999606296, 1.000000, 82.000000, 2.000000,2.000000,1.000000,6.000000,0.500000,1.000000
4, test, 6, no_probe, 3, 4, 1, 4, 1, 0.7, 0.3, left, 1, 0.3, 0.4, 0.6, 0.7, 0.3835298999911174, 1, , , 2.000000, 83.000000, 1.000000,3.000000,1.000000,6.000000,0.500000,1.000000
4, test, 6, no_probe, 4, 4, 1, 4, 1, 0.7, 0.3, left, 1, 0.3, 0.4, 0.6, 0.7, 0.6011455000843853, 1, , , 3.000000, 84.000000, 2.000000,3.000000,1.000000,6.000000,0.500000,1.000000
4, test, 6, probe, 5, 1, 3, 3, 1, 0.3, 0.6, right, 2, 0.3, 0.4, 0.6, 0.7, 0.9997690001036972, 0, 60.584930419921875, 2.116685700020753, 3.000000, 84.000000, 3.000000,3.000000,1.000000,6.000000,0.500000,1.000000
4, test, 6, no_probe, 6, 4, 1, 4, 1, 0.7, 0.3, left, 1, 0.3, 0.4, 0.6, 0.7, 0.49818589992355555, 1, , , 4.000000, 85.000000, 1.000000,3.000000,1.000000,6.000000,0.500000,1.000000
4, test, 6, no_probe, 7, 2, 1, 1, 2, 0.4, 0.3, right, 2, 0.3, 0.4, 0.6, 0.7, 1.0912844000849873, 1, , , 5.000000, 86.000000, 2.000000,3.000000,1.000000,6.000000,0.500000,1.000000
4, test, 6, probe, 8, 4, 1, 4, 1, 0.7, 0.3, left, 1, 0.3, 0.4, 0.6, 0.7, 0.5857671999838203, 1, 63.15777587890625, 1.5499462001025677, 6.000000, 87.000000, 3.000000,3.000000,1.000000,6.000000,0.500000,1.000000
4, test, 6, no_probe, 9, 2, 3, 2, 3, 0.4, 0.6, left, 1, 0.3, 0.4, 0.6, 0.7, 0.6200112999649718, 1, , , 7.000000, 88.000000, 1.000000,3.000000,1.000000,6.000000,0.500000,1.000000
4, test, 6, no_probe, 10, 4, 3, 3, 4, 0.7, 0.6, right, 2, 0.3, 0.4, 0.6, 0.7, 0.47302190004847944, 1, , , 8.000000, 89.000000, 2.000000,3.000000,1.000000,6.000000,0.500000,1.000000
4, test, 6, probe, 11, 4, 3, 4, 3, 0.7, 0.6, left, 1, 0.3, 0.4, 0.6, 0.7, 0.5922397000249475, 0, 66.78506469726562, 3.9166370999300852, 8.000000, 89.000000, 3.000000,3.000000,1.000000,6.000000,0.500000,1.000000
4, test, 6, no_probe, 12, 4, 2, 4, 2, 0.7, 0.4, left, 1, 0.3, 0.4, 0.6, 0.7, 0.9356724999379367, 1, , , 9.000000, 90.000000, 1.000000,3.000000,1.000000,6.000000,0.500000,1.000000
4, test, 6, no_probe, 13, 1, 2, 1, 2, 0.3, 0.4, left, 1, 0.3, 0.4, 0.6, 0.7, 0.6044311999576166, 0, , , 9.000000, 90.000000, 2.000000,3.000000,1.000000,6.000000,0.500000,1.000000
4, test, 6, probe, 14, 2, 3, 2, 3, 0.4, 0.6, left, 1, 0.3, 0.4, 0.6, 0.7, 0.5334014999680221, 0, 38.545654296875, 2.533320700051263, 9.000000, 90.000000, 3.000000,3.000000,1.000000,6.000000,0.500000,1.000000
4, test, 6, no_probe, 15, 4, 1, 4, 1, 0.7, 0.3, left, 1, 0.3, 0.4, 0.6, 0.7, 0.5305172000080347, 1, , , 10.000000, 91.000000, 1.000000,2.000000,1.000000,6.000000,0.500000,1.000000
4, test, 6, probe, 16, 1, 3, 3, 1, 0.3, 0.6, right, 2, 0.3, 0.4, 0.6, 0.7, 1.0069949000608176, 0, 39.721099853515625, 2.4999761000508443, 10.000000, 91.000000, 2.000000,2.000000,1.000000,6.000000,0.500000,1.000000
4, test, 6, no_probe, 17, 2, 4, 2, 4, 0.4, 0.7, left, 1, 0.3, 0.4, 0.6, 0.7, 0.5310493999859318, 0, , , 10.000000, 91.000000, 1.000000,3.000000,1.000000,6.000000,0.500000,1.000000
4, test, 6, no_probe, 18, 3, 1, 3, 1, 0.6, 0.3, left, 1, 0.3, 0.4, 0.6, 0.7, 0.662354200030677, 0, , , 10.000000, 91.000000, 2.000000,3.000000,1.000000,6.000000,0.500000,1.000000
4, test, 6, probe, 19, 4, 1, 1, 4, 0.7, 0.3, right, 2, 0.3, 0.4, 0.6, 0.7, 0.4054590999148786, 1, 39.773284912109375, 4.3498907999601215, 11.000000, 92.000000, 3.000000,3.000000,1.000000,6.000000,0.500000,1.000000
4, test, 6, no_probe, 20, 3, 1, 1, 3, 0.6, 0.3, right, 2, 0.3, 0.4, 0.6, 0.7, 0.6633839000714943, 1, , , 12.000000, 93.000000, 1.000000,2.000000,1.000000,6.000000,0.500000,1.000000
4, test, 6, probe, 21, 3, 4, 3, 4, 0.6, 0.7, left, 1, 0.3, 0.4, 0.6, 0.7, 0.4429674999555573, 1, 54.9520263671875, 1.6666560000739992, 13.000000, 94.000000, 2.000000,2.000000,1.000000,6.000000,0.500000,1.000000
4, test, 6, no_probe, 22, 3, 2, 3, 2, 0.6, 0.4, left, 1, 0.3, 0.4, 0.6, 0.7, 0.5937860000412911, 1, , , 14.000000, 95.000000, 1.000000,2.000000,1.000000,6.000000,0.500000,1.000000
4, test, 6, probe, 23, 1, 4, 4, 1, 0.3, 0.7, right, 2, 0.3, 0.4, 0.6, 0.7, 0.5127979000099003, 0, 28.699005126953125, 2.4833275000564754, 14.000000, 95.000000, 2.000000,2.000000,1.000000,6.000000,0.500000,1.000000
4, test, 6, no_probe, 24, 3, 4, 3, 4, 0.6, 0.7, left, 1, 0.3, 0.4, 0.6, 0.7, 0.5245472000679001, 0, , , 14.000000, 95.000000, 1.000000,3.000000,1.000000,6.000000,0.500000,1.000000
4, test, 6, no_probe, 25, 4, 3, 4, 3, 0.7, 0.6, left, 1, 0.3, 0.4, 0.6, 0.7, 0.4137436000164598, 1, , , 15.000000, 96.000000, 2.000000,3.000000,1.000000,6.000000,0.500000,1.000000
4, test, 7, no_probe, 1, 1, 2, 2, 1, 0.3, 0.4, right, 2, 0.3, 0.4, 0.6, 0.7, 0.5743997000390664, 0, , , 0.000000, 96.000000, 1.000000,3.000000,1.000000,6.000000,0.500000,1.000000
4, test, 7, no_probe, 2, 4, 3, 4, 3, 0.7, 0.6, left, 1, 0.3, 0.4, 0.6, 0.7, 0.8808082999894395, 0, , , 0.000000, 96.000000, 2.000000,3.000000,1.000000,6.000000,0.500000,1.000000
4, test, 7, probe, 3, 3, 1, 1, 3, 0.6, 0.3, right, 2, 0.3, 0.4, 0.6, 0.7, 0.37794070004019886, 1, 58.76776123046875, 1.8995569999096915, 1.000000, 97.000000, 3.000000,3.000000,1.000000,6.000000,0.500000,1.000000
4, test, 7, no_probe, 4, 3, 4, 3, 4, 0.6, 0.7, left, 1, 0.3, 0.4, 0.6, 0.7, 0.4310892999637872, 0, , , 1.000000, 97.000000, 1.000000,3.000000,1.000000,6.000000,0.500000,1.000000
4, test, 7, no_probe, 5, 4, 1, 4, 1, 0.7, 0.3, left, 1, 0.3, 0.4, 0.6, 0.7, 1.8152167000807822, 1, , , 2.000000, 98.000000, 2.000000,3.000000,1.000000,6.000000,0.500000,1.000000
4, test, 7, probe, 6, 2, 1, 2, 1, 0.4, 0.3, left, 1, 0.3, 0.4, 0.6, 0.7, 0.8080085000256076, 1, 58.854034423828125, 1.7666469999821857, 3.000000, 99.000000, 3.000000,3.000000,1.000000,6.000000,0.500000,1.000000
4, test, 7, no_probe, 7, 2, 1, 1, 2, 0.4, 0.3, right, 2, 0.3, 0.4, 0.6, 0.7, 0.49326739995740354, 1, , , 4.000000, 100.000000, 1.000000,2.000000,1.000000,6.000000,0.500000,1.000000
4, test, 7, probe, 8, 4, 3, 3, 4, 0.7, 0.6, right, 2, 0.3, 0.4, 0.6, 0.7, 0.5588702999521047, 1, 59.301727294921875, 1.549946799990721, 5.000000, 101.000000, 2.000000,2.000000,1.000000,6.000000,0.500000,1.000000
4, test, 7, no_probe, 9, 3, 1, 3, 1, 0.6, 0.3, left, 1, 0.3, 0.4, 0.6, 0.7, 0.39569829998072237, 1, , , 6.000000, 102.000000, 1.000000,2.000000,1.000000,6.000000,0.500000,1.000000
4, test, 7, probe, 10, 4, 3, 3, 4, 0.7, 0.6, right, 2, 0.3, 0.4, 0.6, 0.7, 0.6729099999647588, 0, 39.588104248046875, 2.3166679999558255, 6.000000, 102.000000, 2.000000,2.000000,1.000000,6.000000,0.500000,1.000000
4, test, 7, no_probe, 11, 3, 1, 3, 1, 0.6, 0.3, left, 1, 0.3, 0.4, 0.6, 0.7, 0.649607399944216, 1, , , 7.000000, 103.000000, 1.000000,3.000000,1.000000,6.000000,0.500000,1.000000
4, test, 7, no_probe, 12, 3, 2, 3, 2, 0.6, 0.4, left, 1, 0.3, 0.4, 0.6, 0.7, 0.38584200001787394, 1, , , 8.000000, 104.000000, 2.000000,3.000000,1.000000,6.000000,0.500000,1.000000
4, test, 7, probe, 13, 2, 1, 2, 1, 0.4, 0.3, left, 1, 0.3, 0.4, 0.6, 0.7, 0.7835923000238836, 1, 58.989898681640625, 1.5332746000494808, 9.000000, 105.000000, 3.000000,3.000000,1.000000,6.000000,0.500000,1.000000
4, test, 7, no_probe, 14, 3, 2, 3, 2, 0.6, 0.4, left, 1, 0.3, 0.4, 0.6, 0.7, 0.8270029999548569, 1, , , 10.000000, 106.000000, 1.000000,2.000000,1.000000,6.000000,0.500000,1.000000
4, test, 7, probe, 15, 3, 1, 3, 1, 0.6, 0.3, left, 1, 0.3, 0.4, 0.6, 0.7, 0.44326540001202375, 1, 58.224853515625, 2.5165874999947846, 11.000000, 107.000000, 2.000000,2.000000,1.000000,6.000000,0.500000,1.000000
4, test, 7, no_probe, 16, 3, 2, 2, 3, 0.6, 0.4, right, 2, 0.3, 0.4, 0.6, 0.7, 0.6696511999471113, 0, , , 11.000000, 107.000000, 1.000000,2.000000,1.000000,6.000000,0.500000,1.000000
4, test, 7, probe, 17, 4, 3, 3, 4, 0.7, 0.6, right, 2, 0.3, 0.4, 0.6, 0.7, 0.6243438000092283, 0, 42.212249755859375, 3.333338199998252, 11.000000, 107.000000, 2.000000,2.000000,1.000000,6.000000,0.500000,1.000000
4, test, 7, no_probe, 18, 2, 1, 2, 1, 0.4, 0.3, left, 1, 0.3, 0.4, 0.6, 0.7, 0.9584291999926791, 0, , , 11.000000, 107.000000, 1.000000,3.000000,1.000000,6.000000,0.500000,1.000000
4, test, 7, no_probe, 19, 4, 1, 1, 4, 0.7, 0.3, right, 2, 0.3, 0.4, 0.6, 0.7, 0.3936233000131324, 1, , , 12.000000, 108.000000, 2.000000,3.000000,1.000000,6.000000,0.500000,1.000000
4, test, 7, probe, 20, 4, 3, 3, 4, 0.7, 0.6, right, 2, 0.3, 0.4, 0.6, 0.7, 0.47124590002931654, 1, 52.874481201171875, 2.9999451999319717, 13.000000, 109.000000, 3.000000,3.000000,1.000000,6.000000,0.500000,1.000000
4, test, 7, no_probe, 21, 3, 1, 3, 1, 0.6, 0.3, left, 1, 0.3, 0.4, 0.6, 0.7, 0.7891205999767408, 1, , , 14.000000, 110.000000, 1.000000,2.000000,1.000000,6.000000,0.500000,1.000000
4, test, 7, probe, 22, 3, 4, 4, 3, 0.6, 0.7, right, 2, 0.3, 0.4, 0.6, 0.7, 0.6432802999624982, 0, 60.74005126953125, 1.8666475999634713, 14.000000, 110.000000, 2.000000,2.000000,1.000000,6.000000,0.500000,1.000000
4, test, 7, no_probe, 23, 4, 1, 1, 4, 0.7, 0.3, right, 2, 0.3, 0.4, 0.6, 0.7, 1.3233361999737099, 1, , , 15.000000, 111.000000, 1.000000,3.000000,1.000000,6.000000,0.500000,1.000000
4, test, 7, no_probe, 24, 4, 1, 1, 4, 0.7, 0.3, right, 2, 0.3, 0.4, 0.6, 0.7, 0.41173389996401966, 1, , , 16.000000, 112.000000, 2.000000,3.000000,1.000000,6.000000,0.500000,1.000000
4, test, 7, probe, 25, 2, 1, 1, 2, 0.4, 0.3, right, 2, 0.3, 0.4, 0.6, 0.7, 0.6172018999932334, 1, 38.45947265625, 4.449963899911381, 17.000000, 113.000000, 3.000000,3.000000,1.000000,6.000000,0.500000,1.000000
4, test, 8, no_probe, 1, 2, 4, 4, 2, 0.4, 0.7, right, 2, 0.3, 0.4, 0.6, 0.7, 0.42595589999109507, 0, , , 0.000000, 113.000000, 1.000000,2.000000,1.000000,6.000000,0.500000,1.000000
4, test, 8, probe, 2, 4, 1, 1, 4, 0.7, 0.3, right, 2, 0.3, 0.4, 0.6, 0.7, 0.5618754000170156, 1, 61.459503173828125, 2.1499341001035646, 1.000000, 114.000000, 2.000000,2.000000,1.000000,6.000000,0.500000,1.000000
4, test, 8, no_probe, 3, 1, 2, 2, 1, 0.3, 0.4, right, 2, 0.3, 0.4, 0.6, 0.7, 0.8330386000452563, 0, , , 1.000000, 114.000000, 1.000000,3.000000,1.000000,6.000000,0.500000,1.000000
4, test, 8, no_probe, 4, 2, 1, 2, 1, 0.4, 0.3, left, 1, 0.3, 0.4, 0.6, 0.7, 1.2931637999136, 1, , , 2.000000, 115.000000, 2.000000,3.000000,1.000000,6.000000,0.500000,1.000000
4, test, 8, probe, 5, 1, 3, 1, 3, 0.3, 0.6, left, 1, 0.3, 0.4, 0.6, 0.7, 1.3157615000382066, 0, 40.56951904296875, 1.7332667999435216, 2.000000, 115.000000, 3.000000,3.000000,1.000000,6.000000,0.500000,1.000000
4, test, 8, no_probe, 6, 2, 3, 3, 2, 0.4, 0.6, right, 2, 0.3, 0.4, 0.6, 0.7, 0.482046699966304, 0, , , 2.000000, 115.000000, 1.000000,3.000000,1.000000,6.000000,0.500000,1.000000
4, test, 8, no_probe, 7, 3, 4, 3, 4, 0.6, 0.7, left, 1, 0.3, 0.4, 0.6, 0.7, 0.7440829999977723, 1, , , 3.000000, 116.000000, 2.000000,3.000000,1.000000,6.000000,0.500000,1.000000
4, test, 8, probe, 8, 4, 2, 2, 4, 0.7, 0.4, right, 2, 0.3, 0.4, 0.6, 0.7, 0.4351752999937162, 1, 58.204498291015625, 1.6332615999272093, 4.000000, 117.000000, 3.000000,3.000000,1.000000,6.000000,0.500000,1.000000
4, test, 8, no_probe, 9, 4, 1, 1, 4, 0.7, 0.3, right, 2, 0.3, 0.4, 0.6, 0.7, 0.6296236999332905, 0, , , 4.000000, 117.000000, 1.000000,3.000000,1.000000,6.000000,0.500000,1.000000
4, test, 8, no_probe, 10, 4, 1, 4, 1, 0.7, 0.3, left, 1, 0.3, 0.4, 0.6, 0.7, 0.620983500033617, 1, , , 5.000000, 118.000000, 2.000000,3.000000,1.000000,6.000000,0.500000,1.000000
4, test, 8, probe, 11, 1, 3, 3, 1, 0.3, 0.6, right, 2, 0.3, 0.4, 0.6, 0.7, 1.766834000009112, 0, 44.49853515625, 2.799949200008996, 5.000000, 118.000000, 3.000000,3.000000,1.000000,6.000000,0.500000,1.000000
4, test, 8, no_probe, 12, 4, 3, 3, 4, 0.7, 0.6, right, 2, 0.3, 0.4, 0.6, 0.7, 1.03942939999979, 1, , , 6.000000, 119.000000, 1.000000,3.000000,1.000000,6.000000,0.500000,1.000000
4, test, 8, no_probe, 13, 4, 1, 1, 4, 0.7, 0.3, right, 2, 0.3, 0.4, 0.6, 0.7, 0.39880060008727014, 0, , , 6.000000, 119.000000, 2.000000,3.000000,1.000000,6.000000,0.500000,1.000000
4, test, 8, probe, 14, 1, 2, 2, 1, 0.3, 0.4, right, 2, 0.3, 0.4, 0.6, 0.7, 0.8688004999421537, 1, 59.690582275390625, 1.8500242000445724, 7.000000, 120.000000, 3.000000,3.000000,1.000000,6.000000,0.500000,1.000000
4, test, 8, no_probe, 15, 4, 2, 2, 4, 0.7, 0.4, right, 2, 0.3, 0.4, 0.6, 0.7, 0.5523315999889746, 1, , , 8.000000, 121.000000, 1.000000,3.000000,1.000000,6.000000,0.500000,1.000000
4, test, 8, no_probe, 16, 2, 3, 3, 2, 0.4, 0.6, right, 2, 0.3, 0.4, 0.6, 0.7, 0.6077574000228196, 1, , , 9.000000, 122.000000, 2.000000,3.000000,1.000000,6.000000,0.500000,1.000000
4, test, 8, probe, 17, 4, 1, 1, 4, 0.7, 0.3, right, 2, 0.3, 0.4, 0.6, 0.7, 0.3527488000690937, 1, 53.154876708984375, 3.9332933000987396, 10.000000, 123.000000, 3.000000,3.000000,1.000000,6.000000,0.500000,1.000000
4, test, 8, no_probe, 18, 3, 1, 1, 3, 0.6, 0.3, right, 2, 0.3, 0.4, 0.6, 0.7, 0.6651681000366807, 1, , , 11.000000, 124.000000, 1.000000,3.000000,1.000000,6.000000,0.500000,1.000000
4, test, 8, no_probe, 19, 2, 1, 1, 2, 0.4, 0.3, right, 2, 0.3, 0.4, 0.6, 0.7, 0.5359770000213757, 1, , , 12.000000, 125.000000, 2.000000,3.000000,1.000000,6.000000,0.500000,1.000000
4, test, 8, probe, 20, 2, 4, 2, 4, 0.4, 0.7, left, 1, 0.3, 0.4, 0.6, 0.7, 0.37743959994986653, 1, 61.1322021484375, 1.583266400033608, 13.000000, 126.000000, 3.000000,3.000000,1.000000,6.000000,0.500000,1.000000
4, test, 8, no_probe, 21, 3, 4, 3, 4, 0.6, 0.7, left, 1, 0.3, 0.4, 0.6, 0.7, 0.6624610000289977, 1, , , 14.000000, 127.000000, 1.000000,3.000000,1.000000,6.000000,0.500000,1.000000
4, test, 8, no_probe, 22, 4, 1, 4, 1, 0.7, 0.3, left, 1, 0.3, 0.4, 0.6, 0.7, 0.9931218000128865, 0, , , 14.000000, 127.000000, 2.000000,3.000000,1.000000,6.000000,0.500000,1.000000
4, test, 8, probe, 23, 2, 4, 4, 2, 0.4, 0.7, right, 2, 0.3, 0.4, 0.6, 0.7, 0.6628115000203252, 1, 72.69613647460938, 2.683316900045611, 15.000000, 128.000000, 3.000000,3.000000,1.000000,6.000000,0.500000,1.000000
4, test, 8, no_probe, 24, 3, 4, 3, 4, 0.6, 0.7, left, 1, 0.3, 0.4, 0.6, 0.7, 0.44110679998993874, 1, , , 16.000000, 129.000000, 1.000000,2.000000,1.000000,6.000000,0.500000,1.000000
4, test, 8, probe, 25, 2, 4, 4, 2, 0.4, 0.7, right, 2, 0.3, 0.4, 0.6, 0.7, 0.32942670001648366, 0, 42.10260009765625, 3.2832435000455007, 16.000000, 129.000000, 2.000000,2.000000,1.000000,6.000000,0.500000,1.000000
