subject, block_type, block, thought probe, trial, chosen, unchosen, offer_left_image, offer_right_image, exp_value_chosen, exp_value_unchosen, choice_location, choice_key, exp_value1, exp_value2, exp_value3, exp_value4, RT, reward, vas, RT_vas, coins_per_block, coins_per_task, count_to_prob, ntrial_to_prob, ITI_duration,RT_deadline,choice_feedback_duration,outcome_duration
25, test, 1, no_probe, 1, 4, 3, 4, 3, 0.7, 0.6, left, 1, 0.3, 0.4, 0.6, 0.7, 3.0463192999886815, 0, , , 0.000000, 0.000000, 1.000000,3.000000,1.000000,6.000000,0.500000,1.000000
25, test, 1, no_probe, 2, 2, 4, 2, 4, 0.4, 0.7, left, 1, 0.3, 0.4, 0.6, 0.7, 1.6492208999989089, 0, , , 0.000000, 0.000000, 2.000000,3.000000,1.000000,6.000000,0.500000,1.000000
25, test, 1, probe, 3, 2, 4, 4, 2, 0.4, 0.7, right, 2, 0.3, 0.4, 0.6, 0.7, 1.4088226999738254, 0, 73.55239868164062, 8.099867300014012, 0.000000, 0.000000, 3.000000,3.000000,1.000000,6.000000,0.500000,1.000000
25, test, 1, no_probe, 4, 3, 4, 3, 4, 0.6, 0.7, left, 1, 0.3, 0.4, 0.6, 0.7, 1.0161912000039592, 0, , , 0.000000, 0.000000, 1.000000,2.000000,1.000000,6.000000,0.500000,1.000000
25, test, 1, probe, 5, 1, 2, 1, 2, 0.3, 0.4, left, 1, 0.3, 0.4, 0.6, 0.7, 1.3165938000020105, 0, 76.05218505859375, 5.39990420002141, 0.000000, 0.000000, 2.000000,2.000000,1.000000,6.000000,0.500000,1.000000
25, test, 1, no_probe, 6, 1, 3, 3, 1, 0.3, 0.6, right, 2, 0.3, 0.4, 0.6, 0.7, 1.1693721000046935, 0, , , 0.000000, 0.000000, 1.000000,2.000000,1.000000,6.000000,0.500000,1.000000
25, test, 1, no_probe, 1, 1, 4, 1, 4, 0.3, 0.7, left, 1, 0.3, 0.4, 0.6, 0.7, 0.9440681000123732, 0, , , 0.000000, 0.000000, 1.000000,2.000000,1.000000,6.000000,0.500000,1.000000
25, test, 1, probe, 2, 4, 3, 4, 3, 0.7, 0.6, left, 1, 0.3, 0.4, 0.6, 0.7, 0.8155224000220187, 1, 84.79302978515625, 5.299874300020747, 1.000000, 1.000000, 2.000000,2.000000,1.000000,6.000000,0.500000,1.000000
25, test, 1, no_probe, 3, 3, 1, 3, 1, 0.6, 0.3, left, 1, 0.3, 0.4, 0.6, 0.7, 0.5378643999865744, 0, , , 1.000000, 1.000000, 1.000000,3.000000,1.000000,6.000000,0.500000,1.000000
25, test, 1, no_probe, 4, 4, 3, 3, 4, 0.7, 0.6, right, 2, 0.3, 0.4, 0.6, 0.7, 0.4384077000140678, 0, , , 1.000000, 1.000000, 2.000000,3.000000,1.000000,6.000000,0.500000,1.000000
25, test, 1, probe, 5, 3, 4, 3, 4, 0.6, 0.7, left, 1, 0.3, 0.4, 0.6, 0.7, 0.4472624000045471, 1, 71.07623291015625, 5.399940200004494, 2.000000, 2.000000, 3.000000,3.000000,1.000000,6.000000,0.500000,1.000000
25, test, 1, no_probe, 6, 2, 4, 2, 4, 0.4, 0.7, left, 1, 0.3, 0.4, 0.6, 0.7, 0.3373907999775838, 0, , , 2.000000, 2.000000, 1.000000,2.000000,1.000000,6.000000,0.500000,1.000000
25, test, 1, probe, 7, 4, 2, 4, 2, 0.7, 0.4, left, 1, 0.3, 0.4, 0.6, 0.7, 0.22518760000821203, 0, 84.47702026367188, 4.549952000001213, 2.000000, 2.000000, 2.000000,2.000000,1.000000,6.000000,0.500000,1.000000
25, test, 1, no_probe, 8, 4, 3, 4, 3, 0.7, 0.6, left, 1, 0.3, 0.4, 0.6, 0.7, 0.36668869998538867, 0, , , 2.000000, 2.000000, 1.000000,3.000000,1.000000,6.000000,0.500000,1.000000
25, test, 1, no_probe, 9, 2, 4, 4, 2, 0.4, 0.7, right, 2, 0.3, 0.4, 0.6, 0.7, 0.8932602999848314, 1, , , 3.000000, 3.000000, 2.000000,3.000000,1.000000,6.000000,0.500000,1.000000
25, test, 1, probe, 10, 4, 3, 4, 3, 0.7, 0.6, left, 1, 0.3, 0.4, 0.6, 0.7, 1.0308061999967322, 1, 74.37875366210938, 3.649945099983597, 4.000000, 4.000000, 3.000000,3.000000,1.000000,6.000000,0.500000,1.000000
25, test, 1, no_probe, 11, 3, 1, 3, 1, 0.6, 0.3, left, 1, 0.3, 0.4, 0.6, 0.7, 0.6199837999884039, 1, , , 5.000000, 5.000000, 1.000000,2.000000,1.000000,6.000000,0.500000,1.000000
25, test, 1, probe, 12, 4, 2, 4, 2, 0.7, 0.4, left, 1, 0.3, 0.4, 0.6, 0.7, 0.6802445000212174, 1, 81.18008422851562, 2.7499601999879815, 6.000000, 6.000000, 2.000000,2.000000,1.000000,6.000000,0.500000,1.000000
25, test, 1, no_probe, 13, 3, 4, 4, 3, 0.6, 0.7, right, 2, 0.3, 0.4, 0.6, 0.7, 1.424032700015232, 1, , , 7.000000, 7.000000, 1.000000,2.000000,1.000000,6.000000,0.500000,1.000000
25, test, 1, probe, 14, 4, 2, 4, 2, 0.7, 0.4, left, 1, 0.3, 0.4, 0.6, 0.7, 0.6550449000205845, 1, 87.1195068359375, 3.133309700002428, 8.000000, 8.000000, 2.000000,2.000000,1.000000,6.000000,0.500000,1.000000
25, test, 1, no_probe, 15, 4, 1, 4, 1, 0.7, 0.3, left, 1, 0.3, 0.4, 0.6, 0.7, 0.95597949999501, 1, , , 9.000000, 9.000000, 1.000000,3.000000,1.000000,6.000000,0.500000,1.000000
25, test, 1, no_probe, 16, 3, 1, 3, 1, 0.6, 0.3, left, 1, 0.3, 0.4, 0.6, 0.7, 0.9192238999821711, 1, , , 10.000000, 10.000000, 2.000000,3.000000,1.000000,6.000000,0.500000,1.000000
25, test, 1, probe, 17, 1, 3, 1, 3, 0.3, 0.6, left, 1, 0.3, 0.4, 0.6, 0.7, 1.5055042000021785, 1, 82.49673461914062, 3.066644999984419, 11.000000, 11.000000, 3.000000,3.000000,1.000000,6.000000,0.500000,1.000000
25, test, 1, no_probe, 18, 4, 3, 3, 4, 0.7, 0.6, right, 2, 0.3, 0.4, 0.6, 0.7, 1.5786523999995552, 1, , , 12.000000, 12.000000, 1.000000,3.000000,1.000000,6.000000,0.500000,1.000000
25, test, 1, no_probe, 19, 3, 2, 3, 2, 0.6, 0.4, left, 1, 0.3, 0.4, 0.6, 0.7, 1.061057399987476, 0, , , 12.000000, 12.000000, 2.000000,3.000000,1.000000,6.000000,0.500000,1.000000
25, test, 1, probe, 20, 4, 2, 2, 4, 0.7, 0.4, right, 2, 0.3, 0.4, 0.6, 0.7, 1.002137400006177, 1, 84.93923950195312, 2.649976400018204, 13.000000, 13.000000, 3.000000,3.000000,1.000000,6.000000,0.500000,1.000000
25, test, 1, no_probe, 21, 4, 2, 4, 2, 0.7, 0.4, left, 1, 0.3, 0.4, 0.6, 0.7, 0.7772208999958821, 1, , , 14.000000, 14.000000, 1.000000,2.000000,1.000000,6.000000,0.500000,1.000000
25, test, 1, probe, 22, 4, 3, 3, 4, 0.7, 0.6, right, 2, 0.3, 0.4, 0.6, 0.7, 0.731335799995577, 0, 72.4754638671875, 2.149941999989096, 14.000000, 14.000000, 2.000000,2.000000,1.000000,6.000000,0.500000,1.000000
25, test, 1, no_probe, 23, 2, 1, 2, 1, 0.4, 0.3, left, 1, 0.3, 0.4, 0.6, 0.7, 0.5636906999861822, 1, , , 15.000000, 15.000000, 1.000000,3.000000,1.000000,6.000000,0.500000,1.000000
25, test, 1, no_probe, 24, 2, 4, 4, 2, 0.4, 0.7, right, 2, 0.3, 0.4, 0.6, 0.7, 0.7469342999975197, 0, , , 15.000000, 15.000000, 2.000000,3.000000,1.000000,6.000000,0.500000,1.000000
25, test, 1, probe, 25, 2, 3, 2, 3, 0.4, 0.6, left, 1, 0.3, 0.4, 0.6, 0.7, 0.6177351000078488, 1, 69.02786254882812, 2.7832881000067573, 16.000000, 16.000000, 3.000000,3.000000,1.000000,6.000000,0.500000,1.000000
25, test, 2, no_probe, 1, 3, 2, 3, 2, 0.6, 0.4, left, 1, 0.3, 0.4, 0.6, 0.7, 1.6035910999926273, 1, , , 1.000000, 17.000000, 1.000000,3.000000,1.000000,6.000000,0.500000,1.000000
25, test, 2, no_probe, 2, 2, 4, 2, 4, 0.4, 0.7, left, 1, 0.3, 0.4, 0.6, 0.7, 0.8943083999911323, 0, , , 1.000000, 17.000000, 2.000000,3.000000,1.000000,6.000000,0.500000,1.000000
25, test, 2, probe, 3, 3, 2, 2, 3, 0.6, 0.4, right, 2, 0.3, 0.4, 0.6, 0.7, 0.6986601000244264, 1, 71.58840942382812, 2.2163364999869373, 2.000000, 18.000000, 3.000000,3.000000,1.000000,6.000000,0.500000,1.000000
25, test, 2, no_probe, 4, 3, 4, 4, 3, 0.6, 0.7, right, 2, 0.3, 0.4, 0.6, 0.7, 0.9294560000125784, 0, , , 2.000000, 18.000000, 1.000000,3.000000,1.000000,6.000000,0.500000,1.000000
25, test, 2, no_probe, 5, 4, 2, 2, 4, 0.7, 0.4, right, 2, 0.3, 0.4, 0.6, 0.7, 0.5463264000136405, 1, , , 3.000000, 19.000000, 2.000000,3.000000,1.000000,6.000000,0.500000,1.000000
25, test, 2, probe, 6, 1, 3, 1, 3, 0.3, 0.6, left, 1, 0.3, 0.4, 0.6, 0.7, 1.150330300006317, 0, 70.03228759765625, 1.9832942999782972, 3.000000, 19.000000, 3.000000,3.000000,1.000000,6.000000,0.500000,1.000000
25, test, 2, no_probe, 7, 2, 3, 2, 3, 0.4, 0.6, left, 1, 0.3, 0.4, 0.6, 0.7, 1.271715699986089, 1, , , 4.000000, 20.000000, 1.000000,2.000000,1.000000,6.000000,0.500000,1.000000
25, test, 2, probe, 8, 1, 3, 1, 3, 0.3, 0.6, left, 1, 0.3, 0.4, 0.6, 0.7, 1.1943585999833886, 0, 71.971435546875, 2.6832883000024594, 4.000000, 20.000000, 2.000000,2.000000,1.000000,6.000000,0.500000,1.000000
25, test, 2, no_probe, 9, 2, 3, 2, 3, 0.4, 0.6, left, 1, 0.3, 0.4, 0.6, 0.7, 2.0324870999902487, 1, , , 5.000000, 21.000000, 1.000000,2.000000,1.000000,6.000000,0.500000,1.000000
25, test, 2, probe, 10, 1, 2, 2, 1, 0.3, 0.4, right, 2, 0.3, 0.4, 0.6, 0.7, 0.8673794000060298, 0, 70.73382568359375, 1.9833352999994531, 5.000000, 21.000000, 2.000000,2.000000,1.000000,6.000000,0.500000,1.000000
25, test, 2, no_probe, 11, 2, 3, 2, 3, 0.4, 0.6, left, 1, 0.3, 0.4, 0.6, 0.7, 0.8704368000035174, 0, , , 5.000000, 21.000000, 1.000000,2.000000,1.000000,6.000000,0.500000,1.000000
25, test, 2, probe, 12, 3, 2, 2, 3, 0.6, 0.4, right, 2, 0.3, 0.4, 0.6, 0.7, 0.6531036000233144, 1, 67.67556762695312, 1.8166382999916095, 6.000000, 22.000000, 2.000000,2.000000,1.000000,6.000000,0.500000,1.000000
25, test, 2, no_probe, 13, 4, 2, 2, 4, 0.7, 0.4, right, 2, 0.3, 0.4, 0.6, 0.7, 1.0903351999877486, 1, , , 7.000000, 23.000000, 1.000000,3.000000,1.000000,6.000000,0.500000,1.000000
25, test, 2, no_probe, 14, 2, 4, 4, 2, 0.4, 0.7, right, 2, 0.3, 0.4, 0.6, 0.7, 2.3721385000098962, 1, , , 8.000000, 24.000000, 2.000000,3.000000,1.000000,6.000000,0.500000,1.000000
25, test, 2, probe, 15, 2, 4, 4, 2, 0.4, 0.7, right, 2, 0.3, 0.4, 0.6, 0.7, 1.0330017999804113, 1, 70.4835205078125, 1.849965000001248, 9.000000, 25.000000, 3.000000,3.000000,1.000000,6.000000,0.500000,1.000000
25, test, 2, no_probe, 16, 2, 1, 1, 2, 0.4, 0.3, right, 2, 0.3, 0.4, 0.6, 0.7, 3.3762671999866143, 1, , , 10.000000, 26.000000, 1.000000,3.000000,1.000000,6.000000,0.500000,1.000000
25, test, 2, no_probe, 17, 3, 4, 4, 3, 0.6, 0.7, right, 2, 0.3, 0.4, 0.6, 0.7, 1.736032700020587, 0, , , 10.000000, 26.000000, 2.000000,3.000000,1.000000,6.000000,0.500000,1.000000
25, test, 2, probe, 18, 4, 2, 4, 2, 0.7, 0.4, left, 1, 0.3, 0.4, 0.6, 0.7, 0.6675290999992285, 1, 73.292236328125, 2.2333070999884512, 11.000000, 27.000000, 3.000000,3.000000,1.000000,6.000000,0.500000,1.000000
25, test, 2, no_probe, 19, 3, 4, 4, 3, 0.6, 0.7, right, 2, 0.3, 0.4, 0.6, 0.7, 0.7200466999784112, 1, , , 12.000000, 28.000000, 1.000000,2.000000,1.000000,6.000000,0.500000,1.000000
25, test, 2, probe, 20, 4, 1, 1, 4, 0.7, 0.3, right, 2, 0.3, 0.4, 0.6, 0.7, 1.5927833000023384, 0, 68.156494140625, 3.9332952000258956, 12.000000, 28.000000, 2.000000,2.000000,1.000000,6.000000,0.500000,1.000000
25, test, 2, no_probe, 21, 2, 4, 4, 2, 0.4, 0.7, right, 2, 0.3, 0.4, 0.6, 0.7, 0.5870406999893021, 1, , , 13.000000, 29.000000, 1.000000,3.000000,1.000000,6.000000,0.500000,1.000000
25, test, 2, no_probe, 22, 2, 3, 3, 2, 0.4, 0.6, right, 2, 0.3, 0.4, 0.6, 0.7, 0.9372975000005681, 1, , , 14.000000, 30.000000, 2.000000,3.000000,1.000000,6.000000,0.500000,1.000000
25, test, 2, probe, 23, 3, 4, 4, 3, 0.6, 0.7, right, 2, 0.3, 0.4, 0.6, 0.7, 0.8304967999865767, 1, 63.96337890625, 1.8499515000148676, 15.000000, 31.000000, 3.000000,3.000000,1.000000,6.000000,0.500000,1.000000
25, test, 2, no_probe, 24, 1, 4, 4, 1, 0.3, 0.7, right, 2, 0.3, 0.4, 0.6, 0.7, 0.3621747999859508, 1, , , 16.000000, 32.000000, 1.000000,2.000000,1.000000,6.000000,0.500000,1.000000
25, test, 2, probe, 25, 2, 3, 3, 2, 0.4, 0.6, right, 2, 0.3, 0.4, 0.6, 0.7, 0.4971922000113409, 1, 77.9937744140625, 1.7999757999787107, 17.000000, 33.000000, 2.000000,2.000000,1.000000,6.000000,0.500000,1.000000
25, test, 3, no_probe, 1, 2, 3, 2, 3, 0.4, 0.6, left, 1, 0.3, 0.4, 0.6, 0.7, 1.9368903999857139, 0, , , 0.000000, 33.000000, 1.000000,3.000000,1.000000,6.000000,0.500000,1.000000
25, test, 3, no_probe, 2, 3, 4, 3, 4, 0.6, 0.7, left, 1, 0.3, 0.4, 0.6, 0.7, 0.8944702000007965, 1, , , 1.000000, 34.000000, 2.000000,3.000000,1.000000,6.000000,0.500000,1.000000
25, test, 3, probe, 3, 3, 1, 1, 3, 0.6, 0.3, right, 2, 0.3, 0.4, 0.6, 0.7, 0.43179989999043755, 0, 64.09942626953125, 1.6829573000140954, 1.000000, 34.000000, 3.000000,3.000000,1.000000,6.000000,0.500000,1.000000
25, test, 3, no_probe, 4, 3, 4, 3, 4, 0.6, 0.7, left, 1, 0.3, 0.4, 0.6, 0.7, 0.6057571000128519, 1, , , 2.000000, 35.000000, 1.000000,3.000000,1.000000,6.000000,0.500000,1.000000
25, test, 3, no_probe, 5, 3, 1, 3, 1, 0.6, 0.3, left, 1, 0.3, 0.4, 0.6, 0.7, 0.8546838000183925, 0, , , 2.000000, 35.000000, 2.000000,3.000000,1.000000,6.000000,0.500000,1.000000
25, test, 3, probe, 6, 4, 3, 3, 4, 0.7, 0.6, right, 2, 0.3, 0.4, 0.6, 0.7, 1.4227284000080545, 1, 68.60476684570312, 1.799975700007053, 3.000000, 36.000000, 3.000000,3.000000,1.000000,6.000000,0.500000,1.000000
25, test, 3, no_probe, 7, 2, 1, 2, 1, 0.4, 0.3, left, 1, 0.3, 0.4, 0.6, 0.7, 2.3072041000123136, 1, , , 4.000000, 37.000000, 1.000000,3.000000,1.000000,6.000000,0.500000,1.000000
25, test, 3, no_probe, 8, 1, 3, 1, 3, 0.3, 0.6, left, 1, 0.3, 0.4, 0.6, 0.7, 1.298465900006704, 0, , , 4.000000, 37.000000, 2.000000,3.000000,1.000000,6.000000,0.500000,1.000000
25, test, 3, probe, 9, 2, 4, 4, 2, 0.4, 0.7, right, 2, 0.3, 0.4, 0.6, 0.7, 0.8972552999912295, 1, 68.36212158203125, 1.3333312000031583, 5.000000, 38.000000, 3.000000,3.000000,1.000000,6.000000,0.500000,1.000000
25, test, 3, no_probe, 10, 2, 4, 2, 4, 0.4, 0.7, left, 1, 0.3, 0.4, 0.6, 0.7, 2.0027892000216525, 0, , , 5.000000, 38.000000, 1.000000,2.000000,1.000000,6.000000,0.500000,1.000000
25, test, 3, probe, 11, 2, 3, 3, 2, 0.4, 0.6, right, 2, 0.3, 0.4, 0.6, 0.7, 0.39273960000718944, 1, 63.1181640625, 1.116630200005602, 6.000000, 39.000000, 2.000000,2.000000,1.000000,6.000000,0.500000,1.000000
25, test, 3, no_probe, 12, 1, 2, 2, 1, 0.3, 0.4, right, 2, 0.3, 0.4, 0.6, 0.7, 0.6453534000029322, 0, , , 6.000000, 39.000000, 1.000000,2.000000,1.000000,6.000000,0.500000,1.000000
25, test, 3, probe, 13, 1, 3, 3, 1, 0.3, 0.6, right, 2, 0.3, 0.4, 0.6, 0.7, 0.480520000011893, 1, 61.400054931640625, 1.1666461999993771, 7.000000, 40.000000, 2.000000,2.000000,1.000000,6.000000,0.500000,1.000000
25, test, 3, no_probe, 14, 3, 4, 3, 4, 0.6, 0.7, left, 1, 0.3, 0.4, 0.6, 0.7, 1.2107654999999795, 1, , , 8.000000, 41.000000, 1.000000,2.000000,1.000000,6.000000,0.500000,1.000000
25, test, 3, probe, 15, 4, 2, 2, 4, 0.7, 0.4, right, 2, 0.3, 0.4, 0.6, 0.7, 0.4991114999866113, 1, 72.15447998046875, 2.4499727000074927, 9.000000, 42.000000, 2.000000,2.000000,1.000000,6.000000,0.500000,1.000000
25, test, 3, no_probe, 16, 2, 1, 2, 1, 0.4, 0.3, left, 1, 0.3, 0.4, 0.6, 0.7, 1.9529522999946494, 0, , , 9.000000, 42.000000, 1.000000,2.000000,1.000000,6.000000,0.500000,1.000000
25, test, 3, probe, 17, 3, 2, 2, 3, 0.6, 0.4, right, 2, 0.3, 0.4, 0.6, 0.7, 1.2128895000205375, 0, 63.747894287109375, 1.9499653999810107, 9.000000, 42.000000, 2.000000,2.000000,1.000000,6.000000,0.500000,1.000000
25, test, 3, no_probe, 18, 4, 2, 4, 2, 0.7, 0.4, left, 1, 0.3, 0.4, 0.6, 0.7, 0.582980499981204, 1, , , 10.000000, 43.000000, 1.000000,2.000000,1.000000,6.000000,0.500000,1.000000
25, test, 3, probe, 19, 2, 4, 2, 4, 0.4, 0.7, left, 1, 0.3, 0.4, 0.6, 0.7, 1.7276251000002958, 0, 60.185638427734375, 1.2000027000030968, 10.000000, 43.000000, 2.000000,2.000000,1.000000,6.000000,0.500000,1.000000
25, test, 3, no_probe, 20, 4, 3, 3, 4, 0.7, 0.6, right, 2, 0.3, 0.4, 0.6, 0.7, 0.5865962000098079, 1, , , 11.000000, 44.000000, 1.000000,2.000000,1.000000,6.000000,0.500000,1.000000
25, test, 3, probe, 21, 4, 1, 1, 4, 0.7, 0.3, right, 2, 0.3, 0.4, 0.6, 0.7, 0.5376505999884102, 1, 63.253143310546875, 1.1000137999944855, 12.000000, 45.000000, 2.000000,2.000000,1.000000,6.000000,0.500000,1.000000
25, test, 3, no_probe, 22, 3, 1, 1, 3, 0.6, 0.3, right, 2, 0.3, 0.4, 0.6, 0.7, 1.4882263999897987, 0, , , 12.000000, 45.000000, 1.000000,3.000000,1.000000,6.000000,0.500000,1.000000
25, test, 3, no_probe, 23, 4, 1, 1, 4, 0.7, 0.3, right, 2, 0.3, 0.4, 0.6, 0.7, 0.9782482000009622, 1, , , 13.000000, 46.000000, 2.000000,3.000000,1.000000,6.000000,0.500000,1.000000
25, test, 3, probe, 24, 2, 1, 1, 2, 0.4, 0.3, right, 2, 0.3, 0.4, 0.6, 0.7, 1.1035277000046335, 0, 57.514984130859375, 1.166643499978818, 13.000000, 46.000000, 3.000000,3.000000,1.000000,6.000000,0.500000,1.000000
25, test, 3, no_probe, 25, 2, 1, 1, 2, 0.4, 0.3, right, 2, 0.3, 0.4, 0.6, 0.7, 0.5932721999997739, 0, , , 13.000000, 46.000000, 1.000000,3.000000,1.000000,6.000000,0.500000,1.000000
25, test, 4, no_probe, 1, 1, 3, 3, 1, 0.3, 0.6, right, 2, 0.3, 0.4, 0.6, 0.7, 1.698548300017137, 0, , , 0.000000, 46.000000, 1.000000,3.000000,1.000000,6.000000,0.500000,1.000000
25, test, 4, no_probe, 2, 4, 1, 1, 4, 0.7, 0.3, right, 2, 0.3, 0.4, 0.6, 0.7, 2.251599300012458, 1, , , 1.000000, 47.000000, 2.000000,3.000000,1.000000,6.000000,0.500000,1.000000
25, test, 4, probe, 3, 4, 1, 4, 1, 0.7, 0.3, left, 1, 0.3, 0.4, 0.6, 0.7, 1.62831840000581, 1, 83.24310302734375, 3.1995694000215735, 2.000000, 48.000000, 3.000000,3.000000,1.000000,6.000000,0.500000,1.000000
25, test, 4, no_probe, 4, 2, 4, 2, 4, 0.4, 0.7, left, 1, 0.3, 0.4, 0.6, 0.7, 4.010930700023891, 0, , , 2.000000, 48.000000, 1.000000,2.000000,1.000000,6.000000,0.500000,1.000000
25, test, 4, probe, 5, 4, 1, 1, 4, 0.7, 0.3, right, 2, 0.3, 0.4, 0.6, 0.7, 1.1406243999954313, 0, 61.679168701171875, 1.8666442999965511, 2.000000, 48.000000, 2.000000,2.000000,1.000000,6.000000,0.500000,1.000000
25, test, 4, no_probe, 6, 1, 2, 2, 1, 0.3, 0.4, right, 2, 0.3, 0.4, 0.6, 0.7, 1.1342776999808848, 0, , , 2.000000, 48.000000, 1.000000,3.000000,1.000000,6.000000,0.500000,1.000000
25, test, 4, no_probe, 7, 1, 4, 1, 4, 0.3, 0.7, left, 1, 0.3, 0.4, 0.6, 0.7, 0.7512590999831446, 1, , , 3.000000, 49.000000, 2.000000,3.000000,1.000000,6.000000,0.500000,1.000000
25, test, 4, probe, 8, 4, 3, 4, 3, 0.7, 0.6, left, 1, 0.3, 0.4, 0.6, 0.7, 1.7748936999996658, 1, 69.2489013671875, 1.6499724999885075, 4.000000, 50.000000, 3.000000,3.000000,1.000000,6.000000,0.500000,1.000000
25, test, 4, no_probe, 9, 4, 2, 2, 4, 0.7, 0.4, right, 2, 0.3, 0.4, 0.6, 0.7, 2.0487448000058066, 1, , , 5.000000, 51.000000, 1.000000,3.000000,1.000000,6.000000,0.500000,1.000000
25, test, 4, no_probe, 10, 1, 4, 4, 1, 0.3, 0.7, right, 2, 0.3, 0.4, 0.6, 0.7, 2.3006893999991007, 0, , , 5.000000, 51.000000, 2.000000,3.000000,1.000000,6.000000,0.500000,1.000000
25, test, 4, probe, 11, 1, 3, 3, 1, 0.3, 0.6, right, 2, 0.3, 0.4, 0.6, 0.7, 1.981943399994634, 0, 59.071319580078125, 1.3332777000032365, 5.000000, 51.000000, 3.000000,3.000000,1.000000,6.000000,0.500000,1.000000
25, test, 4, no_probe, 12, 1, 2, 1, 2, 0.3, 0.4, left, 1, 0.3, 0.4, 0.6, 0.7, 0.6985266999981832, 0, , , 5.000000, 51.000000, 1.000000,2.000000,1.000000,6.000000,0.500000,1.000000
25, test, 4, probe, 13, 4, 3, 3, 4, 0.7, 0.6, right, 2, 0.3, 0.4, 0.6, 0.7, 1.3682610999967437, 1, 67.35040283203125, 1.4166512999800034, 6.000000, 52.000000, 2.000000,2.000000,1.000000,6.000000,0.500000,1.000000
25, test, 4, no_probe, 14, 4, 3, 4, 3, 0.7, 0.6, left, 1, 0.3, 0.4, 0.6, 0.7, 0.7478071000077762, 0, , , 6.000000, 52.000000, 1.000000,3.000000,1.000000,6.000000,0.500000,1.000000
25, test, 4, no_probe, 15, 4, 2, 2, 4, 0.7, 0.4, right, 2, 0.3, 0.4, 0.6, 0.7, 1.173494299990125, 1, , , 7.000000, 53.000000, 2.000000,3.000000,1.000000,6.000000,0.500000,1.000000
25, test, 4, probe, 16, 4, 3, 3, 4, 0.7, 0.6, right, 2, 0.3, 0.4, 0.6, 0.7, 1.5095083999913186, 1, 69.83828735351562, 1.6999785999942105, 8.000000, 54.000000, 3.000000,3.000000,1.000000,6.000000,0.500000,1.000000
25, test, 4, no_probe, 17, 2, 1, 1, 2, 0.4, 0.3, right, 2, 0.3, 0.4, 0.6, 0.7, 3.3309755999944173, 1, , , 9.000000, 55.000000, 1.000000,3.000000,1.000000,6.000000,0.500000,1.000000
25, test, 4, no_probe, 18, 2, 3, 3, 2, 0.4, 0.6, right, 2, 0.3, 0.4, 0.6, 0.7, 2.4656526999897324, 1, , , 10.000000, 56.000000, 2.000000,3.000000,1.000000,6.000000,0.500000,1.000000
25, test, 4, probe, 19, 2, 4, 4, 2, 0.4, 0.7, right, 2, 0.3, 0.4, 0.6, 0.7, 0.6774369000049774, 1, 70.01690673828125, 2.5499040999857243, 11.000000, 57.000000, 3.000000,3.000000,1.000000,6.000000,0.500000,1.000000
25, test, 4, no_probe, 20, 2, 1, 2, 1, 0.4, 0.3, left, 1, 0.3, 0.4, 0.6, 0.7, 0.7200980999914464, 1, , , 12.000000, 58.000000, 1.000000,2.000000,1.000000,6.000000,0.500000,1.000000
25, test, 4, probe, 21, 1, 4, 4, 1, 0.3, 0.7, right, 2, 0.3, 0.4, 0.6, 0.7, 2.418028099986259, 0, 54.701019287109375, 1.0833106999925803, 12.000000, 58.000000, 2.000000,2.000000,1.000000,6.000000,0.500000,1.000000
25, test, 4, no_probe, 22, 3, 1, 3, 1, 0.6, 0.3, left, 1, 0.3, 0.4, 0.6, 0.7, 3.597462900012033, 0, , , 12.000000, 58.000000, 1.000000,3.000000,1.000000,6.000000,0.500000,1.000000
25, test, 4, no_probe, 23, 2, 3, 3, 2, 0.4, 0.6, right, 2, 0.3, 0.4, 0.6, 0.7, 1.7027891000034288, 0, , , 12.000000, 58.000000, 2.000000,3.000000,1.000000,6.000000,0.500000,1.000000
25, test, 4, probe, 24, 4, 2, 4, 2, 0.7, 0.4, left, 1, 0.3, 0.4, 0.6, 0.7, 1.4241468999825884, 1, 42.4747314453125, 4.516582800017204, 13.000000, 59.000000, 3.000000,3.000000,1.000000,6.000000,0.500000,1.000000
25, test, 4, no_probe, 25, 2, 3, 2, 3, 0.4, 0.6, left, 1, 0.3, 0.4, 0.6, 0.7, 0.6421431000053417, 1, , , 14.000000, 60.000000, 1.000000,3.000000,1.000000,6.000000,0.500000,1.000000
25, test, 5, no_probe, 1, 3, 1, 3, 1, 0.6, 0.3, left, 1, 0.3, 0.4, 0.6, 0.7, 4.296901599998819, 0, , , 0.000000, 60.000000, 1.000000,2.000000,1.000000,6.000000,0.500000,1.000000
25, test, 5, probe, 2, 2, 3, 2, 3, 0.4, 0.6, left, 1, 0.3, 0.4, 0.6, 0.7, 3.3977615000039805, 1, 83.75927734375, 4.016621699993266, 1.000000, 61.000000, 2.000000,2.000000,1.000000,6.000000,0.500000,1.000000
25, test, 5, no_probe, 3, 4, 3, 3, 4, 0.7, 0.6, right, 2, 0.3, 0.4, 0.6, 0.7, 2.1496977000206243, 1, , , 2.000000, 62.000000, 1.000000,2.000000,1.000000,6.000000,0.500000,1.000000
25, test, 5, probe, 4, 4, 3, 4, 3, 0.7, 0.6, left, 1, 0.3, 0.4, 0.6, 0.7, 1.8885136999888346, 1, 75.38427734375, 3.1499217999808025, 3.000000, 63.000000, 2.000000,2.000000,1.000000,6.000000,0.500000,1.000000
25, test, 5, no_probe, 5, 4, 1, 1, 4, 0.7, 0.3, right, 2, 0.3, 0.4, 0.6, 0.7, 1.83265389999724, 1, , , 4.000000, 64.000000, 1.000000,2.000000,1.000000,6.000000,0.500000,1.000000
25, test, 5, probe, 6, 2, 1, 2, 1, 0.4, 0.3, left, 1, 0.3, 0.4, 0.6, 0.7, 1.0361815000069328, 0, 43.01287841796875, 2.3833301000122447, 4.000000, 64.000000, 2.000000,2.000000,1.000000,6.000000,0.500000,1.000000
25, test, 5, no_probe, 7, 4, 1, 1, 4, 0.7, 0.3, right, 2, 0.3, 0.4, 0.6, 0.7, 4.34038330000476, 1, , , 5.000000, 65.000000, 1.000000,2.000000,1.000000,6.000000,0.500000,1.000000
25, test, 5, probe, 8, 4, 1, 4, 1, 0.7, 0.3, left, 1, 0.3, 0.4, 0.6, 0.7, 0.9549719000060577, 0, 61.901458740234375, 1.2333339999895543, 5.000000, 65.000000, 2.000000,2.000000,1.000000,6.000000,0.500000,1.000000
25, test, 5, no_probe, 9, 3, 2, 2, 3, 0.6, 0.4, right, 2, 0.3, 0.4, 0.6, 0.7, 3.3027074999990873, 1, , , 6.000000, 66.000000, 1.000000,3.000000,1.000000,6.000000,0.500000,1.000000
25, test, 5, no_probe, 10, 4, 1, 1, 4, 0.7, 0.3, right, 2, 0.3, 0.4, 0.6, 0.7, 1.9732418000057805, 0, , , 6.000000, 66.000000, 2.000000,3.000000,1.000000,6.000000,0.500000,1.000000
25, test, 5, probe, 11, 4, 3, 3, 4, 0.7, 0.6, right, 2, 0.3, 0.4, 0.6, 0.7, 4.192778500000713, 1, 33.498779296875, 1.3666473999910522, 7.000000, 67.000000, 3.000000,3.000000,1.000000,6.000000,0.500000,1.000000
25, test, 5, no_probe, 12, 3, 2, 2, 3, 0.6, 0.4, right, 2, 0.3, 0.4, 0.6, 0.7, 2.5818633000017144, 0, , , 7.000000, 67.000000, 1.000000,3.000000,1.000000,6.000000,0.500000,1.000000
25, test, 5, no_probe, 13, 4, 2, 2, 4, 0.7, 0.4, right, 2, 0.3, 0.4, 0.6, 0.7, 0.7123592000280041, 1, , , 8.000000, 68.000000, 2.000000,3.000000,1.000000,6.000000,0.500000,1.000000
25, test, 5, probe, 14, 2, 4, 4, 2, 0.4, 0.7, right, 2, 0.3, 0.4, 0.6, 0.7, 1.6779496000090148, 0, 44.46600341796875, 1.8666528000030667, 8.000000, 68.000000, 3.000000,3.000000,1.000000,6.000000,0.500000,1.000000
25, test, 5, no_probe, 15, 4, 2, 2, 4, 0.7, 0.4, right, 2, 0.3, 0.4, 0.6, 0.7, 0.8356718000140972, 1, , , 9.000000, 69.000000, 1.000000,3.000000,1.000000,6.000000,0.500000,1.000000
25, test, 5, no_probe, 16, 3, 1, 1, 3, 0.6, 0.3, right, 2, 0.3, 0.4, 0.6, 0.7, 3.7204143999842927, 0, , , 9.000000, 69.000000, 2.000000,3.000000,1.000000,6.000000,0.500000,1.000000
25, test, 5, probe, 17, 1, 4, 4, 1, 0.3, 0.7, right, 2, 0.3, 0.4, 0.6, 0.7, 1.8133319999906234, 0, 42.48284912109375, 1.316616800002521, 9.000000, 69.000000, 3.000000,3.000000,1.000000,6.000000,0.500000,1.000000
25, test, 5, no_probe, 18, 1, 2, 2, 1, 0.3, 0.4, right, 2, 0.3, 0.4, 0.6, 0.7, 1.740225499990629, 1, , , 10.000000, 70.000000, 1.000000,2.000000,1.000000,6.000000,0.500000,1.000000
25, test, 5, probe, 19, 2, 4, 4, 2, 0.4, 0.7, right, 2, 0.3, 0.4, 0.6, 0.7, 2.5715923000243492, 0, 42.871368408203125, 1.3666222000028938, 10.000000, 70.000000, 2.000000,2.000000,1.000000,6.000000,0.500000,1.000000
25, test, 5, no_probe, 20, 1, 3, 1, 3, 0.3, 0.6, left, 1, 0.3, 0.4, 0.6, 0.7, 0.9149473999859765, 0, , , 10.000000, 70.000000, 1.000000,2.000000,1.000000,6.000000,0.500000,1.000000
25, test, 5, probe, 21, 2, 3, 3, 2, 0.4, 0.6, right, 2, 0.3, 0.4, 0.6, 0.7, 0.37828129998524673, 0, 24.2061767578125, 1.7999617999885231, 10.000000, 70.000000, 2.000000,2.000000,1.000000,6.000000,0.500000,1.000000
25, test, 5, no_probe, 22, 2, 1, 2, 1, 0.4, 0.3, left, 1, 0.3, 0.4, 0.6, 0.7, 0.3832240999909118, 1, , , 11.000000, 71.000000, 1.000000,3.000000,1.000000,6.000000,0.500000,1.000000
25, test, 5, no_probe, 23, 2, 1, 2, 1, 0.4, 0.3, left, 1, 0.3, 0.4, 0.6, 0.7, 0.30226779999793507, 1, , , 12.000000, 72.000000, 2.000000,3.000000,1.000000,6.000000,0.500000,1.000000
25, test, 5, probe, 24, 4, 1, 1, 4, 0.7, 0.3, right, 2, 0.3, 0.4, 0.6, 0.7, 1.0864722999976948, 0, 33.771453857421875, 1.2999831000051927, 12.000000, 72.000000, 3.000000,3.000000,1.000000,6.000000,0.500000,1.000000
25, test, 5, no_probe, 25, 2, 4, 2, 4, 0.4, 0.7, left, 1, 0.3, 0.4, 0.6, 0.7, 0.4324936000048183, 1, , , 13.000000, 73.000000, 1.000000,3.000000,1.000000,6.000000,0.500000,1.000000
25, test, 6, abort_trial, 1
25, test, 6, no_probe, 2, 1, 3, 1, 3, 0.3, 0.6, left, 1, 0.3, 0.4, 0.6, 0.7, 0.9997009999933653, 0, , , 0.000000, 73.000000, 1.000000,3.000000,1.000000,6.000000,0.500000,1.000000
25, test, 6, no_probe, 3, 4, 1, 4, 1, 0.7, 0.3, left, 1, 0.3, 0.4, 0.6, 0.7, 1.0411579000065103, 0, , , 0.000000, 73.000000, 2.000000,3.000000,1.000000,6.000000,0.500000,1.000000
25, test, 6, probe, 4, 2, 3, 3, 2, 0.4, 0.6, right, 2, 0.3, 0.4, 0.6, 0.7, 1.5320464000105858, 0, 44.938323974609375, 1.5333341999794357, 0.000000, 73.000000, 3.000000,3.000000,1.000000,6.000000,0.500000,1.000000
25, test, 6, no_probe, 5, 4, 2, 4, 2, 0.7, 0.4, left, 1, 0.3, 0.4, 0.6, 0.7, 1.1472075000056066, 0, , , 0.000000, 73.000000, 1.000000,3.000000,1.000000,6.000000,0.500000,1.000000
25, test, 6, no_probe, 6, 4, 3, 4, 3, 0.7, 0.6, left, 1, 0.3, 0.4, 0.6, 0.7, 0.5859674999956042, 1, , , 1.000000, 74.000000, 2.000000,3.000000,1.000000,6.000000,0.500000,1.000000
25, test, 6, probe, 7, 2, 1, 1, 2, 0.4, 0.3, right, 2, 0.3, 0.4, 0.6, 0.7, 1.236597700015409, 1, 60.617431640625, 1.3833036000141874, 2.000000, 75.000000, 3.000000,3.000000,1.000000,6.000000,0.500000,1.000000
25, test, 6, no_probe, 8, 4, 2, 2, 4, 0.7, 0.4, right, 2, 0.3, 0.4, 0.6, 0.7, 1.1438856000022497, 1, , , 3.000000, 76.000000, 1.000000,2.000000,1.000000,6.000000,0.500000,1.000000
25, test, 6, probe, 9, 4, 1, 4, 1, 0.7, 0.3, left, 1, 0.3, 0.4, 0.6, 0.7, 0.7271821000031196, 0, 69.52145385742188, 1.8666158999840263, 3.000000, 76.000000, 2.000000,2.000000,1.000000,6.000000,0.500000,1.000000
25, test, 6, no_probe, 10, 2, 1, 2, 1, 0.4, 0.3, left, 1, 0.3, 0.4, 0.6, 0.7, 2.5032931999885477, 0, , , 3.000000, 76.000000, 1.000000,3.000000,1.000000,6.000000,0.500000,1.000000
25, test, 6, no_probe, 11, 3, 1, 3, 1, 0.6, 0.3, left, 1, 0.3, 0.4, 0.6, 0.7, 1.8168380999995861, 1, , , 4.000000, 77.000000, 2.000000,3.000000,1.000000,6.000000,0.500000,1.000000
25, test, 6, probe, 12, 2, 4, 4, 2, 0.4, 0.7, right, 2, 0.3, 0.4, 0.6, 0.7, 1.3707539000024553, 0, 61.00921630859375, 2.3833210000011604, 4.000000, 77.000000, 3.000000,3.000000,1.000000,6.000000,0.500000,1.000000
25, test, 6, no_probe, 13, 4, 2, 2, 4, 0.7, 0.4, right, 2, 0.3, 0.4, 0.6, 0.7, 1.3204054999805521, 1, , , 5.000000, 78.000000, 1.000000,3.000000,1.000000,6.000000,0.500000,1.000000
25, test, 6, no_probe, 14, 3, 2, 2, 3, 0.6, 0.4, right, 2, 0.3, 0.4, 0.6, 0.7, 1.81775019998895, 1, , , 6.000000, 79.000000, 2.000000,3.000000,1.000000,6.000000,0.500000,1.000000
25, test, 6, probe, 15, 4, 1, 1, 4, 0.7, 0.3, right, 2, 0.3, 0.4, 0.6, 0.7, 2.4776827999739908, 0, 56.069305419921875, 1.4666266000131145, 6.000000, 79.000000, 3.000000,3.000000,1.000000,6.000000,0.500000,1.000000
25, test, 6, no_probe, 16, 1, 3, 3, 1, 0.3, 0.6, right, 2, 0.3, 0.4, 0.6, 0.7, 1.2310441999870818, 0, , , 6.000000, 79.000000, 1.000000,3.000000,1.000000,6.000000,0.500000,1.000000
25, test, 6, no_probe, 17, 2, 4, 2, 4, 0.4, 0.7, left, 1, 0.3, 0.4, 0.6, 0.7, 0.38839680000091903, 0, , , 6.000000, 79.000000, 2.000000,3.000000,1.000000,6.000000,0.500000,1.000000
25, test, 6, probe, 18, 2, 3, 3, 2, 0.4, 0.6, right, 2, 0.3, 0.4, 0.6, 0.7, 0.3139573999796994, 1, 59.39178466796875, 1.383312099991599, 7.000000, 80.000000, 3.000000,3.000000,1.000000,6.000000,0.500000,1.000000
25, test, 6, no_probe, 19, 1, 4, 1, 4, 0.3, 0.7, left, 1, 0.3, 0.4, 0.6, 0.7, 1.3623259000014514, 0, , , 7.000000, 80.000000, 1.000000,2.000000,1.000000,6.000000,0.500000,1.000000
25, test, 6, probe, 20, 1, 3, 3, 1, 0.3, 0.6, right, 2, 0.3, 0.4, 0.6, 0.7, 0.5247248999949079, 0, 62.14544677734375, 0.9999449999886565, 7.000000, 80.000000, 2.000000,2.000000,1.000000,6.000000,0.500000,1.000000
25, test, 6, no_probe, 21, 2, 3, 2, 3, 0.4, 0.6, left, 1, 0.3, 0.4, 0.6, 0.7, 0.5840809999790508, 0, , , 7.000000, 80.000000, 1.000000,2.000000,1.000000,6.000000,0.500000,1.000000
25, test, 6, probe, 22, 3, 2, 3, 2, 0.6, 0.4, left, 1, 0.3, 0.4, 0.6, 0.7, 0.21765129998675548, 0, 43.461639404296875, 1.1499507000262383, 7.000000, 80.000000, 2.000000,2.000000,1.000000,6.000000,0.500000,1.000000
25, test, 6, no_probe, 23, 4, 1, 1, 4, 0.7, 0.3, right, 2, 0.3, 0.4, 0.6, 0.7, 0.7882769000134431, 0, , , 7.000000, 80.000000, 1.000000,2.000000,1.000000,6.000000,0.500000,1.000000
25, test, 6, probe, 24, 2, 1, 1, 2, 0.4, 0.3, right, 2, 0.3, 0.4, 0.6, 0.7, 0.48126860000775196, 1, 45.8515625, 1.3666943999996874, 8.000000, 81.000000, 2.000000,2.000000,1.000000,6.000000,0.500000,1.000000
25, test, 6, no_probe, 25, 3, 4, 3, 4, 0.6, 0.7, left, 1, 0.3, 0.4, 0.6, 0.7, 0.8073771000199486, 1, , , 9.000000, 82.000000, 1.000000,2.000000,1.000000,6.000000,0.500000,1.000000
25, test, 7, no_probe, 1, 2, 3, 2, 3, 0.4, 0.6, left, 1, 0.3, 0.4, 0.6, 0.7, 0.6802702999848407, 1, , , 1.000000, 83.000000, 1.000000,3.000000,1.000000,6.000000,0.500000,1.000000
25, test, 7, no_probe, 2, 3, 2, 3, 2, 0.6, 0.4, left, 1, 0.3, 0.4, 0.6, 0.7, 0.9216015999845695, 1, , , 2.000000, 84.000000, 2.000000,3.000000,1.000000,6.000000,0.500000,1.000000
25, test, 7, probe, 3, 1, 4, 1, 4, 0.3, 0.7, left, 1, 0.3, 0.4, 0.6, 0.7, 2.8189354999922216, 0, 79.8017578125, 3.332921699999133, 2.000000, 84.000000, 3.000000,3.000000,1.000000,6.000000,0.500000,1.000000
25, test, 7, no_probe, 4, 4, 3, 3, 4, 0.7, 0.6, right, 2, 0.3, 0.4, 0.6, 0.7, 1.9171280000009574, 1, , , 3.000000, 85.000000, 1.000000,3.000000,1.000000,6.000000,0.500000,1.000000
25, test, 7, no_probe, 5, 4, 2, 4, 2, 0.7, 0.4, left, 1, 0.3, 0.4, 0.6, 0.7, 1.6490641999989748, 1, , , 4.000000, 86.000000, 2.000000,3.000000,1.000000,6.000000,0.500000,1.000000
25, test, 7, probe, 6, 3, 4, 4, 3, 0.6, 0.7, right, 2, 0.3, 0.4, 0.6, 0.7, 2.38515180000104, 1, 65.14407348632812, 2.433235500007868, 5.000000, 87.000000, 3.000000,3.000000,1.000000,6.000000,0.500000,1.000000
25, test, 7, no_probe, 7, 3, 1, 3, 1, 0.6, 0.3, left, 1, 0.3, 0.4, 0.6, 0.7, 2.0004489999846555, 1, , , 6.000000, 88.000000, 1.000000,3.000000,1.000000,6.000000,0.500000,1.000000
25, test, 7, no_probe, 8, 2, 1, 2, 1, 0.4, 0.3, left, 1, 0.3, 0.4, 0.6, 0.7, 1.6333925999933854, 0, , , 6.000000, 88.000000, 2.000000,3.000000,1.000000,6.000000,0.500000,1.000000
25, test, 7, probe, 9, 2, 4, 2, 4, 0.4, 0.7, left, 1, 0.3, 0.4, 0.6, 0.7, 1.2412912999861874, 0, 60.6334228515625, 1.6332973999960814, 6.000000, 88.000000, 3.000000,3.000000,1.000000,6.000000,0.500000,1.000000
25, test, 7, no_probe, 10, 4, 1, 1, 4, 0.7, 0.3, right, 2, 0.3, 0.4, 0.6, 0.7, 0.6395783000043593, 0, , , 6.000000, 88.000000, 1.000000,3.000000,1.000000,6.000000,0.500000,1.000000
25, test, 7, no_probe, 11, 2, 1, 2, 1, 0.4, 0.3, left, 1, 0.3, 0.4, 0.6, 0.7, 0.33567710002535023, 1, , , 7.000000, 89.000000, 2.000000,3.000000,1.000000,6.000000,0.500000,1.000000
25, test, 7, probe, 12, 3, 4, 3, 4, 0.6, 0.7, left, 1, 0.3, 0.4, 0.6, 0.7, 2.2705438999983016, 1, 69.28106689453125, 1.5333087999897543, 8.000000, 90.000000, 3.000000,3.000000,1.000000,6.000000,0.500000,1.000000
25, test, 7, no_probe, 13, 3, 4, 3, 4, 0.6, 0.7, left, 1, 0.3, 0.4, 0.6, 0.7, 0.7349730999849271, 1, , , 9.000000, 91.000000, 1.000000,2.000000,1.000000,6.000000,0.500000,1.000000
25, test, 7, probe, 14, 2, 3, 3, 2, 0.4, 0.6, right, 2, 0.3, 0.4, 0.6, 0.7, 1.447089200024493, 1, 66.97402954101562, 1.2832855000160635, 10.000000, 92.000000, 2.000000,2.000000,1.000000,6.000000,0.500000,1.000000
25, test, 7, no_probe, 15, 4, 2, 2, 4, 0.7, 0.4, right, 2, 0.3, 0.4, 0.6, 0.7, 2.678229700017255, 1, , , 11.000000, 93.000000, 1.000000,2.000000,1.000000,6.000000,0.500000,1.000000
25, test, 7, probe, 16, 3, 4, 4, 3, 0.6, 0.7, right, 2, 0.3, 0.4, 0.6, 0.7, 1.148082700005034, 1, 60.017730712890625, 1.4166395000065677, 12.000000, 94.000000, 2.000000,2.000000,1.000000,6.000000,0.500000,1.000000
25, test, 7, no_probe, 17, 2, 4, 4, 2, 0.4, 0.7, right, 2, 0.3, 0.4, 0.6, 0.7, 1.89651339998818, 0, , , 12.000000, 94.000000, 1.000000,2.000000,1.000000,6.000000,0.500000,1.000000
25, test, 7, probe, 18, 1, 2, 1, 2, 0.3, 0.4, left, 1, 0.3, 0.4, 0.6, 0.7, 1.8738069999963045, 0, 43.705230712890625, 1.8666516999946907, 12.000000, 94.000000, 2.000000,2.000000,1.000000,6.000000,0.500000,1.000000
25, test, 7, no_probe, 19, 3, 1, 1, 3, 0.6, 0.3, right, 2, 0.3, 0.4, 0.6, 0.7, 3.0727507999981754, 1, , , 13.000000, 95.000000, 1.000000,3.000000,1.000000,6.000000,0.500000,1.000000
25, test, 7, no_probe, 20, 3, 4, 4, 3, 0.6, 0.7, right, 2, 0.3, 0.4, 0.6, 0.7, 0.5150411000067834, 0, , , 13.000000, 95.000000, 2.000000,3.000000,1.000000,6.000000,0.500000,1.000000
25, test, 7, probe, 21, 4, 3, 4, 3, 0.7, 0.6, left, 1, 0.3, 0.4, 0.6, 0.7, 1.2121860999905039, 1, 43.127105712890625, 1.4000332000141498, 14.000000, 96.000000, 3.000000,3.000000,1.000000,6.000000,0.500000,1.000000
25, test, 7, no_probe, 22, 1, 2, 1, 2, 0.3, 0.4, left, 1, 0.3, 0.4, 0.6, 0.7, 0.7605309000064153, 0, , , 14.000000, 96.000000, 1.000000,3.000000,1.000000,6.000000,0.500000,1.000000
25, test, 7, no_probe, 23, 3, 4, 3, 4, 0.6, 0.7, left, 1, 0.3, 0.4, 0.6, 0.7, 0.8589760000177193, 1, , , 15.000000, 97.000000, 2.000000,3.000000,1.000000,6.000000,0.500000,1.000000
25, test, 7, probe, 24, 2, 1, 2, 1, 0.4, 0.3, left, 1, 0.3, 0.4, 0.6, 0.7, 0.9947401999961585, 1, 41.86224365234375, 1.3666246999928262, 16.000000, 98.000000, 3.000000,3.000000,1.000000,6.000000,0.500000,1.000000
25, test, 7, no_probe, 25, 4, 3, 4, 3, 0.7, 0.6, left, 1, 0.3, 0.4, 0.6, 0.7, 1.6970655999903101, 0, , , 16.000000, 98.000000, 1.000000,2.000000,1.000000,6.000000,0.500000,1.000000
25, test, 8, no_probe, 1, 1, 3, 1, 3, 0.3, 0.6, left, 1, 0.3, 0.4, 0.6, 0.7, 0.874198699981207, 0, , , 0.000000, 98.000000, 1.000000,2.000000,1.000000,6.000000,0.500000,1.000000
25, test, 8, probe, 2, 2, 4, 2, 4, 0.4, 0.7, left, 1, 0.3, 0.4, 0.6, 0.7, 1.0175643999828026, 0, 82.83383178710938, 2.2833108000049833, 0.000000, 98.000000, 2.000000,2.000000,1.000000,6.000000,0.500000,1.000000
25, test, 8, no_probe, 3, 4, 2, 4, 2, 0.7, 0.4, left, 1, 0.3, 0.4, 0.6, 0.7, 3.5011926000006497, 0, , , 0.000000, 98.000000, 1.000000,3.000000,1.000000,6.000000,0.500000,1.000000
25, test, 8, no_probe, 4, 2, 4, 4, 2, 0.4, 0.7, right, 2, 0.3, 0.4, 0.6, 0.7, 1.1622557000082452, 0, , , 0.000000, 98.000000, 2.000000,3.000000,1.000000,6.000000,0.500000,1.000000
25, test, 8, probe, 5, 4, 1, 4, 1, 0.7, 0.3, left, 1, 0.3, 0.4, 0.6, 0.7, 1.8607974000042304, 1, 69.97116088867188, 1.3833449000085238, 1.000000, 99.000000, 3.000000,3.000000,1.000000,6.000000,0.500000,1.000000
25, test, 8, no_probe, 6, 4, 1, 1, 4, 0.7, 0.3, right, 2, 0.3, 0.4, 0.6, 0.7, 0.31180210001184605, 1, , , 2.000000, 100.000000, 1.000000,3.000000,1.000000,6.000000,0.500000,1.000000
25, test, 8, no_probe, 7, 2, 3, 2, 3, 0.4, 0.6, left, 1, 0.3, 0.4, 0.6, 0.7, 0.49284580000676215, 0, , , 2.000000, 100.000000, 2.000000,3.000000,1.000000,6.000000,0.500000,1.000000
25, test, 8, probe, 8, 2, 1, 1, 2, 0.4, 0.3, right, 2, 0.3, 0.4, 0.6, 0.7, 0.23763700001291, 0, 36.975067138671875, 1.2332853999978397, 2.000000, 100.000000, 3.000000,3.000000,1.000000,6.000000,0.500000,1.000000
25, test, 8, no_probe, 9, 1, 2, 1, 2, 0.3, 0.4, left, 1, 0.3, 0.4, 0.6, 0.7, 3.2484529000066686, 1, , , 3.000000, 101.000000, 1.000000,3.000000,1.000000,6.000000,0.500000,1.000000
25, test, 8, no_probe, 10, 1, 4, 1, 4, 0.3, 0.7, left, 1, 0.3, 0.4, 0.6, 0.7, 1.5829459999804385, 0, , , 3.000000, 101.000000, 2.000000,3.000000,1.000000,6.000000,0.500000,1.000000
25, test, 8, probe, 11, 4, 2, 2, 4, 0.7, 0.4, right, 2, 0.3, 0.4, 0.6, 0.7, 2.4644889000046533, 1, 59.479248046875, 1.06665249998332, 4.000000, 102.000000, 3.000000,3.000000,1.000000,6.000000,0.500000,1.000000
25, test, 8, no_probe, 12, 3, 1, 3, 1, 0.6, 0.3, left, 1, 0.3, 0.4, 0.6, 0.7, 2.700130799988983, 1, , , 5.000000, 103.000000, 1.000000,2.000000,1.000000,6.000000,0.500000,1.000000
25, test, 8, probe, 13, 1, 4, 1, 4, 0.3, 0.7, left, 1, 0.3, 0.4, 0.6, 0.7, 2.745623399998294, 0, 38.6878662109375, 1.1666827000153717, 5.000000, 103.000000, 2.000000,2.000000,1.000000,6.000000,0.500000,1.000000
25, test, 8, no_probe, 14, 3, 2, 2, 3, 0.6, 0.4, right, 2, 0.3, 0.4, 0.6, 0.7, 3.260201800003415, 1, , , 6.000000, 104.000000, 1.000000,3.000000,1.000000,6.000000,0.500000,1.000000
25, test, 8, no_probe, 15, 3, 2, 3, 2, 0.6, 0.4, left, 1, 0.3, 0.4, 0.6, 0.7, 0.8090783999941777, 0, , , 6.000000, 104.000000, 2.000000,3.000000,1.000000,6.000000,0.500000,1.000000
25, test, 8, probe, 16, 3, 1, 1, 3, 0.6, 0.3, right, 2, 0.3, 0.4, 0.6, 0.7, 1.6328556000080425, 0, 41.66717529296875, 1.1000350000103936, 6.000000, 104.000000, 3.000000,3.000000,1.000000,6.000000,0.500000,1.000000
25, test, 8, no_probe, 17, 3, 2, 2, 3, 0.6, 0.4, right, 2, 0.3, 0.4, 0.6, 0.7, 1.4478713999851607, 1, , , 7.000000, 105.000000, 1.000000,3.000000,1.000000,6.000000,0.500000,1.000000
25, test, 8, no_probe, 18, 2, 4, 2, 4, 0.4, 0.7, left, 1, 0.3, 0.4, 0.6, 0.7, 0.7706850999966264, 0, , , 7.000000, 105.000000, 2.000000,3.000000,1.000000,6.000000,0.500000,1.000000
25, test, 8, probe, 19, 1, 2, 1, 2, 0.3, 0.4, left, 1, 0.3, 0.4, 0.6, 0.7, 0.9308077000023331, 0, 27.5174560546875, 2.233328200003598, 7.000000, 105.000000, 3.000000,3.000000,1.000000,6.000000,0.500000,1.000000
25, test, 8, no_probe, 20, 4, 2, 4, 2, 0.7, 0.4, left, 1, 0.3, 0.4, 0.6, 0.7, 2.136362100020051, 1, , , 8.000000, 106.000000, 1.000000,3.000000,1.000000,6.000000,0.500000,1.000000
25, test, 8, no_probe, 21, 4, 2, 4, 2, 0.7, 0.4, left, 1, 0.3, 0.4, 0.6, 0.7, 0.6673512999841478, 1, , , 9.000000, 107.000000, 2.000000,3.000000,1.000000,6.000000,0.500000,1.000000
25, test, 8, probe, 22, 3, 2, 2, 3, 0.6, 0.4, right, 2, 0.3, 0.4, 0.6, 0.7, 1.1187165000010282, 1, 56.659759521484375, 2.4499294999986887, 10.000000, 108.000000, 3.000000,3.000000,1.000000,6.000000,0.500000,1.000000
25, test, 8, no_probe, 23, 2, 3, 2, 3, 0.4, 0.6, left, 1, 0.3, 0.4, 0.6, 0.7, 1.3838352999882773, 1, , , 11.000000, 109.000000, 1.000000,3.000000,1.000000,6.000000,0.500000,1.000000
25, test, 8, no_probe, 24, 2, 4, 4, 2, 0.4, 0.7, right, 2, 0.3, 0.4, 0.6, 0.7, 1.8259744999813847, 0, , , 11.000000, 109.000000, 2.000000,3.000000,1.000000,6.000000,0.500000,1.000000
25, test, 8, probe, 25, 4, 1, 4, 1, 0.7, 0.3, left, 1, 0.3, 0.4, 0.6, 0.7, 3.9861872000037692, 1, 64.6624755859375, 1.3499798999982886, 12.000000, 110.000000, 3.000000,3.000000,1.000000,6.000000,0.500000,1.000000
